cogtask_name|cogtask_display_name|cogtask_type|cogtask_all_params_checksum|participant_id|cogtask_run_uuid|session_id|session_uuid|time_stamp|trial_uuid|cogtask_fps|cogtask_cps|os|mem_free_total|mem_free_perc|cogtask_trial_params|block_id|trialset_id|trial_num|block_num|block_trial_num|is_script|cogtask_script|trial_type|shape_count|response_display_count|swap_count|response_time|button_pressed|before_shape1|before_shape1color|before_shape1x|before_shape1y|before_shape2|before_shape2color|before_shape2x|before_shape2y|before_shape3|before_shape3color|before_shape3x|before_shape3y|after_shape1|after_shape1color|after_shape1x|after_shape1y|after_shape2|after_shape2color|after_shape2x|after_shape2y|after_shape3|after_shape3color|after_shape3x|after_shape3y|script_checksum|cogtask_resource_checksum|cogtask_error|
Color Shapes|Color Shapes|script|05f00a3a4d555692bb54fe4faaa281dd|9999|5f767f72-5461-4528-988a-d78c645a0c0d|39|7cf2fb20-6d0f-45f5-94f5-123ecefd65ea|2020/11/23 15:43:49|c7d1aa98-bfcc-458f-8b81-47b66663ccdd|59.744540585084465|59.126493613514626|android|1376.0MB|25.140603571423476|{"delaytime":"900","difftrialcount":"4","fixationtime":"500","responsedisp3count":"8","shapecount":"3","studytime":"2000","swap3count":"4","trialnum":"8","gridh":"3","gridw":"3","script":"memorybinding","type":"script","defval_survey_pack_id":"demo_survey","trialtype":"0","swapcount":"0","dispcount":"3"}|1|1|1|1|0|true|memorybinding|0|3|3|0|1033|1|2|4|1|0|8|2|2|1|3|3|0|2|2|4|0|0|8|2|2|0|3|3|2|2|{"GameEngine.js":"61fa031fc10c8d55d04ff952c4d14db9","Tools.js":"ca63e8aeadad3fb000f03128ed0b5770","GList.js":"532d667d75f0085221f727470ca83389","KTime.js":"875c9b3225ef5e83b5e6e0ba905a448b","ErrorMan.js":"539cd2c30aa2b5609ee615a040cdbca6","GImage.js":"8a31b421f899c53c1d76057f7aa35dc3","GColor.js":"3f152bebb4545bcef5d255a594dc52e2","memorybinding.js":"ca248b0f5cd99555cbf09db17553ab8b","Entity.js":"7c10dc4ffd31c005841e1db7e3377467","KPosition.js":"a07b31f37c9cb1fa49a6b47bff376522","KAlpha.js":"fdac535470841697614a578b451f6d35","Sprite.js":"cd811fc36d62ac5077fddf578c118bcf","GBox.js":"9c44756dbeb2733973b0bc3ec7784187","memorybinding_shape.js":"dd5e4be10d24c195176a29ea01f5a379","memorybinding_generatetrialset.js":"491124d092c3af76cc4ed38e85623581","GImage_Create.js":"ed2f46cfb944c53b9748d57bd8481fea","GButton.js":"00f4640559587f3c523855146abe359c","memorybinding.json":"1ffe30998176bb13298911f6893075db","GameRunner.js":"4ec5c05e34dd229518088607e762bdc4","KTrigger.js":"359598582677ba151569c2da9b85f2c8","GMap.js":"6f664b3e3d5cef53b028ecbddde836b6","GameParams.js":"51e7eece2f2f5c7486f3c24306bd629e","Trial.js":"6171e3fa7940715f1573d01ebaf67d2f"}|{"":"-1","membinding.png":"e5c71f62b0b1d9ed49a6124df8a2a9d5"}|.
Color Shapes|Color Shapes|script|05f00a3a4d555692bb54fe4faaa281dd|9999|5f767f72-5461-4528-988a-d78c645a0c0d|39|7cf2fb20-6d0f-45f5-94f5-123ecefd65ea|2020/11/23 15:43:54|b7f8e21a-948a-4853-bacb-a15939a778de|59.77382875605816|58.764135702746366|android|1373.0MB|25.085732144666483|{"delaytime":"900","difftrialcount":"4","fixationtime":"500","responsedisp3count":"8","shapecount":"3","studytime":"2000","swap3count":"4","trialnum":"8","gridh":"3","gridw":"3","script":"memorybinding","type":"script","defval_survey_pack_id":"demo_survey","trialtype":"1","swapcount":"3","dispcount":"3"}|1|1|2|1|0|true|memorybinding|1|3|3|3|1157|1|6|3|2|2|9|4|1|0|2|6|0|2|6|4|1|1|9|6|0|1|2|3|0|0|{"GameEngine.js":"61fa031fc10c8d55d04ff952c4d14db9","Tools.js":"ca63e8aeadad3fb000f03128ed0b5770","GList.js":"532d667d75f0085221f727470ca83389","KTime.js":"875c9b3225ef5e83b5e6e0ba905a448b","ErrorMan.js":"539cd2c30aa2b5609ee615a040cdbca6","GImage.js":"8a31b421f899c53c1d76057f7aa35dc3","GColor.js":"3f152bebb4545bcef5d255a594dc52e2","memorybinding.js":"ca248b0f5cd99555cbf09db17553ab8b","Entity.js":"7c10dc4ffd31c005841e1db7e3377467","KPosition.js":"a07b31f37c9cb1fa49a6b47bff376522","KAlpha.js":"fdac535470841697614a578b451f6d35","Sprite.js":"cd811fc36d62ac5077fddf578c118bcf","GBox.js":"9c44756dbeb2733973b0bc3ec7784187","memorybinding_shape.js":"dd5e4be10d24c195176a29ea01f5a379","memorybinding_generatetrialset.js":"491124d092c3af76cc4ed38e85623581","GImage_Create.js":"ed2f46cfb944c53b9748d57bd8481fea","GButton.js":"00f4640559587f3c523855146abe359c","memorybinding.json":"1ffe30998176bb13298911f6893075db","GameRunner.js":"4ec5c05e34dd229518088607e762bdc4","KTrigger.js":"359598582677ba151569c2da9b85f2c8","GMap.js":"6f664b3e3d5cef53b028ecbddde836b6","GameParams.js":"51e7eece2f2f5c7486f3c24306bd629e","Trial.js":"6171e3fa7940715f1573d01ebaf67d2f"}|{"":"-1","membinding.png":"e5c71f62b0b1d9ed49a6124df8a2a9d5"}|.
Color Shapes|Color Shapes|script|05f00a3a4d555692bb54fe4faaa281dd|9999|5f767f72-5461-4528-988a-d78c645a0c0d|39|7cf2fb20-6d0f-45f5-94f5-123ecefd65ea|2020/11/23 15:43:59|bcbdb867-f561-40f8-bf3c-1350c6326d24|59.77451606041268|58.49819187406935|android|1394.0MB|25.46847640100524|{"delaytime":"900","difftrialcount":"4","fixationtime":"500","responsedisp3count":"8","shapecount":"3","studytime":"2000","swap3count":"4","trialnum":"8","gridh":"3","gridw":"3","script":"memorybinding","type":"script","defval_survey_pack_id":"demo_survey","trialtype":"1","swapcount":"3","dispcount":"3"}|1|1|3|1|0|true|memorybinding|1|3|3|3|923|1|8|4|2|2|9|2|2|0|3|5|0|2|8|2|0|0|9|5|2|1|3|4|1|2|{"GameEngine.js":"61fa031fc10c8d55d04ff952c4d14db9","Tools.js":"ca63e8aeadad3fb000f03128ed0b5770","GList.js":"532d667d75f0085221f727470ca83389","KTime.js":"875c9b3225ef5e83b5e6e0ba905a448b","ErrorMan.js":"539cd2c30aa2b5609ee615a040cdbca6","GImage.js":"8a31b421f899c53c1d76057f7aa35dc3","GColor.js":"3f152bebb4545bcef5d255a594dc52e2","memorybinding.js":"ca248b0f5cd99555cbf09db17553ab8b","Entity.js":"7c10dc4ffd31c005841e1db7e3377467","KPosition.js":"a07b31f37c9cb1fa49a6b47bff376522","KAlpha.js":"fdac535470841697614a578b451f6d35","Sprite.js":"cd811fc36d62ac5077fddf578c118bcf","GBox.js":"9c44756dbeb2733973b0bc3ec7784187","memorybinding_shape.js":"dd5e4be10d24c195176a29ea01f5a379","memorybinding_generatetrialset.js":"491124d092c3af76cc4ed38e85623581","GImage_Create.js":"ed2f46cfb944c53b9748d57bd8481fea","GButton.js":"00f4640559587f3c523855146abe359c","memorybinding.json":"1ffe30998176bb13298911f6893075db","GameRunner.js":"4ec5c05e34dd229518088607e762bdc4","KTrigger.js":"359598582677ba151569c2da9b85f2c8","GMap.js":"6f664b3e3d5cef53b028ecbddde836b6","GameParams.js":"51e7eece2f2f5c7486f3c24306bd629e","Trial.js":"6171e3fa7940715f1573d01ebaf67d2f"}|{"":"-1","membinding.png":"e5c71f62b0b1d9ed49a6124df8a2a9d5"}|.
Color Shapes|Color Shapes|script|05f00a3a4d555692bb54fe4faaa281dd|9999|5f767f72-5461-4528-988a-d78c645a0c0d|39|7cf2fb20-6d0f-45f5-94f5-123ecefd65ea|2020/11/23 15:44:03|89c002bd-cea4-417d-9759-b70f345c048a|59.77584059775841|58.73806558738066|android|1387.0MB|25.336756435084034|{"delaytime":"900","difftrialcount":"4","fixationtime":"500","responsedisp3count":"8","shapecount":"3","studytime":"2000","swap3count":"4","trialnum":"8","gridh":"3","gridw":"3","script":"memorybinding","type":"script","defval_survey_pack_id":"demo_survey","trialtype":"0","swapcount":"0","dispcount":"3"}|1|1|4|1|0|true|memorybinding|0|3|3|0|1016|0|8|5|2|2|9|1|0|0|4|2|2|1|8|5|1|1|9|1|1|2|4|2|0|2|{"GameEngine.js":"61fa031fc10c8d55d04ff952c4d14db9","Tools.js":"ca63e8aeadad3fb000f03128ed0b5770","GList.js":"532d667d75f0085221f727470ca83389","KTime.js":"875c9b3225ef5e83b5e6e0ba905a448b","ErrorMan.js":"539cd2c30aa2b5609ee615a040cdbca6","GImage.js":"8a31b421f899c53c1d76057f7aa35dc3","GColor.js":"3f152bebb4545bcef5d255a594dc52e2","memorybinding.js":"ca248b0f5cd99555cbf09db17553ab8b","Entity.js":"7c10dc4ffd31c005841e1db7e3377467","KPosition.js":"a07b31f37c9cb1fa49a6b47bff376522","KAlpha.js":"fdac535470841697614a578b451f6d35","Sprite.js":"cd811fc36d62ac5077fddf578c118bcf","GBox.js":"9c44756dbeb2733973b0bc3ec7784187","memorybinding_shape.js":"dd5e4be10d24c195176a29ea01f5a379","memorybinding_generatetrialset.js":"491124d092c3af76cc4ed38e85623581","GImage_Create.js":"ed2f46cfb944c53b9748d57bd8481fea","GButton.js":"00f4640559587f3c523855146abe359c","memorybinding.json":"1ffe30998176bb13298911f6893075db","GameRunner.js":"4ec5c05e34dd229518088607e762bdc4","KTrigger.js":"359598582677ba151569c2da9b85f2c8","GMap.js":"6f664b3e3d5cef53b028ecbddde836b6","GameParams.js":"51e7eece2f2f5c7486f3c24306bd629e","Trial.js":"6171e3fa7940715f1573d01ebaf67d2f"}|{"":"-1","membinding.png":"e5c71f62b0b1d9ed49a6124df8a2a9d5"}|.
Color Shapes|Color Shapes|script|05f00a3a4d555692bb54fe4faaa281dd|9999|5f767f72-5461-4528-988a-d78c645a0c0d|39|7cf2fb20-6d0f-45f5-94f5-123ecefd65ea|2020/11/23 15:44:08|ef4d2f8a-f3bf-4f4c-adac-6918f2abcf9f|59.77796754910333|58.71050384286934|android|1402.0MB|25.61382503078936|{"delaytime":"900","difftrialcount":"4","fixationtime":"500","responsedisp3count":"8","shapecount":"3","studytime":"2000","swap3count":"4","trialnum":"8","gridh":"3","gridw":"3","script":"memorybinding","type":"script","defval_survey_pack_id":"demo_survey","trialtype":"1","swapcount":"3","dispcount":"3"}|1|1|5|1|0|true|memorybinding|1|3|3|3|893|1|4|1|2|2|3|5|2|0|6|4|0|0|4|5|0|1|3|4|1|0|6|1|2|1|{"GameEngine.js":"61fa031fc10c8d55d04ff952c4d14db9","Tools.js":"ca63e8aeadad3fb000f03128ed0b5770","GList.js":"532d667d75f0085221f727470ca83389","KTime.js":"875c9b3225ef5e83b5e6e0ba905a448b","ErrorMan.js":"539cd2c30aa2b5609ee615a040cdbca6","GImage.js":"8a31b421f899c53c1d76057f7aa35dc3","GColor.js":"3f152bebb4545bcef5d255a594dc52e2","memorybinding.js":"ca248b0f5cd99555cbf09db17553ab8b","Entity.js":"7c10dc4ffd31c005841e1db7e3377467","KPosition.js":"a07b31f37c9cb1fa49a6b47bff376522","KAlpha.js":"fdac535470841697614a578b451f6d35","Sprite.js":"cd811fc36d62ac5077fddf578c118bcf","GBox.js":"9c44756dbeb2733973b0bc3ec7784187","memorybinding_shape.js":"dd5e4be10d24c195176a29ea01f5a379","memorybinding_generatetrialset.js":"491124d092c3af76cc4ed38e85623581","GImage_Create.js":"ed2f46cfb944c53b9748d57bd8481fea","GButton.js":"00f4640559587f3c523855146abe359c","memorybinding.json":"1ffe30998176bb13298911f6893075db","GameRunner.js":"4ec5c05e34dd229518088607e762bdc4","KTrigger.js":"359598582677ba151569c2da9b85f2c8","GMap.js":"6f664b3e3d5cef53b028ecbddde836b6","GameParams.js":"51e7eece2f2f5c7486f3c24306bd629e","Trial.js":"6171e3fa7940715f1573d01ebaf67d2f"}|{"":"-1","membinding.png":"e5c71f62b0b1d9ed49a6124df8a2a9d5"}|.
Color Shapes|Color Shapes|script|05f00a3a4d555692bb54fe4faaa281dd|9999|5f767f72-5461-4528-988a-d78c645a0c0d|39|7cf2fb20-6d0f-45f5-94f5-123ecefd65ea|2020/11/23 15:44:13|6fc0239c-3ca7-434b-8a2c-e3260d95c0cc|59.83733539891557|58.67544539116964|android|1417.0MB|25.894175922503564|{"delaytime":"900","difftrialcount":"4","fixationtime":"500","responsedisp3count":"8","shapecount":"3","studytime":"2000","swap3count":"4","trialnum":"8","gridh":"3","gridw":"3","script":"memorybinding","type":"script","defval_survey_pack_id":"demo_survey","trialtype":"0","swapcount":"0","dispcount":"3"}|1|1|6|1|0|true|memorybinding|0|3|3|0|1357|0|4|1|0|1|2|2|0|2|3|4|2|1|4|1|1|0|2|2|1|1|3|4|2|0|{"GameEngine.js":"61fa031fc10c8d55d04ff952c4d14db9","Tools.js":"ca63e8aeadad3fb000f03128ed0b5770","GList.js":"532d667d75f0085221f727470ca83389","KTime.js":"875c9b3225ef5e83b5e6e0ba905a448b","ErrorMan.js":"539cd2c30aa2b5609ee615a040cdbca6","GImage.js":"8a31b421f899c53c1d76057f7aa35dc3","GColor.js":"3f152bebb4545bcef5d255a594dc52e2","memorybinding.js":"ca248b0f5cd99555cbf09db17553ab8b","Entity.js":"7c10dc4ffd31c005841e1db7e3377467","KPosition.js":"a07b31f37c9cb1fa49a6b47bff376522","KAlpha.js":"fdac535470841697614a578b451f6d35","Sprite.js":"cd811fc36d62ac5077fddf578c118bcf","GBox.js":"9c44756dbeb2733973b0bc3ec7784187","memorybinding_shape.js":"dd5e4be10d24c195176a29ea01f5a379","memorybinding_generatetrialset.js":"491124d092c3af76cc4ed38e85623581","GImage_Create.js":"ed2f46cfb944c53b9748d57bd8481fea","GButton.js":"00f4640559587f3c523855146abe359c","memorybinding.json":"1ffe30998176bb13298911f6893075db","GameRunner.js":"4ec5c05e34dd229518088607e762bdc4","KTrigger.js":"359598582677ba151569c2da9b85f2c8","GMap.js":"6f664b3e3d5cef53b028ecbddde836b6","GameParams.js":"51e7eece2f2f5c7486f3c24306bd629e","Trial.js":"6171e3fa7940715f1573d01ebaf67d2f"}|{"":"-1","membinding.png":"e5c71f62b0b1d9ed49a6124df8a2a9d5"}|.
Color Shapes|Color Shapes|script|05f00a3a4d555692bb54fe4faaa281dd|9999|5f767f72-5461-4528-988a-d78c645a0c0d|39|7cf2fb20-6d0f-45f5-94f5-123ecefd65ea|2020/11/23 15:44:19|7c10e3d1-ef20-4ebc-8afe-d243c461f8b6|59.82582355168497|58.87921241953806|android|1415.0MB|25.850078989166995|{"delaytime":"900","difftrialcount":"4","fixationtime":"500","responsedisp3count":"8","shapecount":"3","studytime":"2000","swap3count":"4","trialnum":"8","gridh":"3","gridw":"3","script":"memorybinding","type":"script","defval_survey_pack_id":"demo_survey","trialtype":"1","swapcount":"3","dispcount":"3"}|1|1|7|1|0|true|memorybinding|1|3|3|3|1482|0|4|2|0|2|2|5|2|0|6|3|0|1|4|5|1|0|2|3|1|1|6|2|1|2|{"GameEngine.js":"61fa031fc10c8d55d04ff952c4d14db9","Tools.js":"ca63e8aeadad3fb000f03128ed0b5770","GList.js":"532d667d75f0085221f727470ca83389","KTime.js":"875c9b3225ef5e83b5e6e0ba905a448b","ErrorMan.js":"539cd2c30aa2b5609ee615a040cdbca6","GImage.js":"8a31b421f899c53c1d76057f7aa35dc3","GColor.js":"3f152bebb4545bcef5d255a594dc52e2","memorybinding.js":"ca248b0f5cd99555cbf09db17553ab8b","Entity.js":"7c10dc4ffd31c005841e1db7e3377467","KPosition.js":"a07b31f37c9cb1fa49a6b47bff376522","KAlpha.js":"fdac535470841697614a578b451f6d35","Sprite.js":"cd811fc36d62ac5077fddf578c118bcf","GBox.js":"9c44756dbeb2733973b0bc3ec7784187","memorybinding_shape.js":"dd5e4be10d24c195176a29ea01f5a379","memorybinding_generatetrialset.js":"491124d092c3af76cc4ed38e85623581","GImage_Create.js":"ed2f46cfb944c53b9748d57bd8481fea","GButton.js":"00f4640559587f3c523855146abe359c","memorybinding.json":"1ffe30998176bb13298911f6893075db","GameRunner.js":"4ec5c05e34dd229518088607e762bdc4","KTrigger.js":"359598582677ba151569c2da9b85f2c8","GMap.js":"6f664b3e3d5cef53b028ecbddde836b6","GameParams.js":"51e7eece2f2f5c7486f3c24306bd629e","Trial.js":"6171e3fa7940715f1573d01ebaf67d2f"}|{"":"-1","membinding.png":"e5c71f62b0b1d9ed49a6124df8a2a9d5"}|.
Color Shapes|Color Shapes|script|05f00a3a4d555692bb54fe4faaa281dd|9999|5f767f72-5461-4528-988a-d78c645a0c0d|39|7cf2fb20-6d0f-45f5-94f5-123ecefd65ea|2020/11/23 15:44:23|066785e6-f95b-4cc9-b9c5-a0c3bc7b0b29|59.76258698321735|58.739255014326645|android|1416.0MB|25.871770684529967|{"delaytime":"900","difftrialcount":"4","fixationtime":"500","responsedisp3count":"8","shapecount":"3","studytime":"2000","swap3count":"4","trialnum":"8","gridh":"3","gridw":"3","script":"memorybinding","type":"script","defval_survey_pack_id":"demo_survey","trialtype":"0","swapcount":"0","dispcount":"3"}|1|1|8|1|0|true|memorybinding|0|3|3|0|1084|1|2|3|1|0|9|6|1|2|6|4|0|0|2|3|2|0|9|6|0|2|6|4|2|1|{"GameEngine.js":"61fa031fc10c8d55d04ff952c4d14db9","Tools.js":"ca63e8aeadad3fb000f03128ed0b5770","GList.js":"532d667d75f0085221f727470ca83389","KTime.js":"875c9b3225ef5e83b5e6e0ba905a448b","ErrorMan.js":"539cd2c30aa2b5609ee615a040cdbca6","GImage.js":"8a31b421f899c53c1d76057f7aa35dc3","GColor.js":"3f152bebb4545bcef5d255a594dc52e2","memorybinding.js":"ca248b0f5cd99555cbf09db17553ab8b","Entity.js":"7c10dc4ffd31c005841e1db7e3377467","KPosition.js":"a07b31f37c9cb1fa49a6b47bff376522","KAlpha.js":"fdac535470841697614a578b451f6d35","Sprite.js":"cd811fc36d62ac5077fddf578c118bcf","GBox.js":"9c44756dbeb2733973b0bc3ec7784187","memorybinding_shape.js":"dd5e4be10d24c195176a29ea01f5a379","memorybinding_generatetrialset.js":"491124d092c3af76cc4ed38e85623581","GImage_Create.js":"ed2f46cfb944c53b9748d57bd8481fea","GButton.js":"00f4640559587f3c523855146abe359c","memorybinding.json":"1ffe30998176bb13298911f6893075db","GameRunner.js":"4ec5c05e34dd229518088607e762bdc4","KTrigger.js":"359598582677ba151569c2da9b85f2c8","GMap.js":"6f664b3e3d5cef53b028ecbddde836b6","GameParams.js":"51e7eece2f2f5c7486f3c24306bd629e","Trial.js":"6171e3fa7940715f1573d01ebaf67d2f"}|{"":"-1","membinding.png":"e5c71f62b0b1d9ed49a6124df8a2a9d5"}|.
Color Shapes|Color Shapes|script|05f00a3a4d555692bb54fe4faaa281dd|9999|93f72905-524e-46d3-ada4-d2bf43f26359|1|e0c81d64-5f3f-4a1b-9ac7-d448db15a40e|2020/11/23 21:09:25|ff8d7e59-164f-468c-8275-c1729a6e9035|59.90685859441151|59.271803556308214|android|1097.0MB|57.32670055153023|{"delaytime":"900","difftrialcount":"4","fixationtime":"500","responsedisp3count":"8","shapecount":"3","studytime":"2000","swap3count":"4","trialnum":"8","gridh":"3","gridw":"3","script":"memorybinding","type":"script","defval_survey_pack_id":"demo_survey","trialtype":"0","swapcount":"0","dispcount":"3"}|1|1|1|1|0|true|memorybinding|0|3|3|0|909|1|2|4|1|1|9|2|0|0|3|3|2|0|2|4|1|2|9|2|0|1|3|3|1|0|{"GameEngine.js":"61fa031fc10c8d55d04ff952c4d14db9","Tools.js":"ca63e8aeadad3fb000f03128ed0b5770","GList.js":"532d667d75f0085221f727470ca83389","KTime.js":"875c9b3225ef5e83b5e6e0ba905a448b","ErrorMan.js":"539cd2c30aa2b5609ee615a040cdbca6","GImage.js":"8a31b421f899c53c1d76057f7aa35dc3","GColor.js":"3f152bebb4545bcef5d255a594dc52e2","memorybinding.js":"ca248b0f5cd99555cbf09db17553ab8b","Entity.js":"7c10dc4ffd31c005841e1db7e3377467","KPosition.js":"a07b31f37c9cb1fa49a6b47bff376522","KAlpha.js":"fdac535470841697614a578b451f6d35","Sprite.js":"cd811fc36d62ac5077fddf578c118bcf","GBox.js":"9c44756dbeb2733973b0bc3ec7784187","memorybinding_shape.js":"dd5e4be10d24c195176a29ea01f5a379","memorybinding_generatetrialset.js":"491124d092c3af76cc4ed38e85623581","GImage_Create.js":"ed2f46cfb944c53b9748d57bd8481fea","GButton.js":"00f4640559587f3c523855146abe359c","memorybinding.json":"1ffe30998176bb13298911f6893075db","GameRunner.js":"4ec5c05e34dd229518088607e762bdc4","KTrigger.js":"359598582677ba151569c2da9b85f2c8","GMap.js":"6f664b3e3d5cef53b028ecbddde836b6","GameParams.js":"51e7eece2f2f5c7486f3c24306bd629e","Trial.js":"6171e3fa7940715f1573d01ebaf67d2f"}|{"":"-1","membinding.png":"e5c71f62b0b1d9ed49a6124df8a2a9d5"}|.
Color Shapes|Color Shapes|script|05f00a3a4d555692bb54fe4faaa281dd|9999|93f72905-524e-46d3-ada4-d2bf43f26359|1|e0c81d64-5f3f-4a1b-9ac7-d448db15a40e|2020/11/23 21:09:25|ff8d7e59-164f-468c-8275-c1729a6e9035|59.90685859441151|59.271803556308214|android|1097.0MB|57.32670055153023|{"delaytime":"900","difftrialcount":"4","fixationtime":"500","responsedisp3count":"8","shapecount":"3","studytime":"2000","swap3count":"4","trialnum":"8","gridh":"3","gridw":"3","script":"memorybinding","type":"script","defval_survey_pack_id":"demo_survey","trialtype":"0","swapcount":"0","dispcount":"3"}|1|1|1|1|0|true|memorybinding|0|3|3|0|909|1|2|4|1|1|9|2|0|0|3|3|2|0|2|4|1|2|9|2|0|1|3|3|1|0|{"GameEngine.js":"61fa031fc10c8d55d04ff952c4d14db9","Tools.js":"ca63e8aeadad3fb000f03128ed0b5770","GList.js":"532d667d75f0085221f727470ca83389","KTime.js":"875c9b3225ef5e83b5e6e0ba905a448b","ErrorMan.js":"539cd2c30aa2b5609ee615a040cdbca6","GImage.js":"8a31b421f899c53c1d76057f7aa35dc3","GColor.js":"3f152bebb4545bcef5d255a594dc52e2","memorybinding.js":"ca248b0f5cd99555cbf09db17553ab8b","Entity.js":"7c10dc4ffd31c005841e1db7e3377467","KPosition.js":"a07b31f37c9cb1fa49a6b47bff376522","KAlpha.js":"fdac535470841697614a578b451f6d35","Sprite.js":"cd811fc36d62ac5077fddf578c118bcf","GBox.js":"9c44756dbeb2733973b0bc3ec7784187","memorybinding_shape.js":"dd5e4be10d24c195176a29ea01f5a379","memorybinding_generatetrialset.js":"491124d092c3af76cc4ed38e85623581","GImage_Create.js":"ed2f46cfb944c53b9748d57bd8481fea","GButton.js":"00f4640559587f3c523855146abe359c","memorybinding.json":"1ffe30998176bb13298911f6893075db","GameRunner.js":"4ec5c05e34dd229518088607e762bdc4","KTrigger.js":"359598582677ba151569c2da9b85f2c8","GMap.js":"6f664b3e3d5cef53b028ecbddde836b6","GameParams.js":"51e7eece2f2f5c7486f3c24306bd629e","Trial.js":"6171e3fa7940715f1573d01ebaf67d2f"}|{"":"-1","membinding.png":"e5c71f62b0b1d9ed49a6124df8a2a9d5"}|.
Color Shapes|Color Shapes|script|05f00a3a4d555692bb54fe4faaa281dd|9999|969a60cc-cdb3-44f6-bc08-b622e5047418|31|6138ac33-f239-437a-80f5-99dd9e8d6de6|2020/11/24 15:45:37|a6974eac-cb26-46f2-a881-f85ab348e979|59.920106524633816|59.032401242787394|android|5648.0MB|49.679352734665805|{"delaytime":"900","difftrialcount":"4","fixationtime":"500","responsedisp3count":"8","shapecount":"3","studytime":"2000","swap3count":"4","trialnum":"8","gridh":"3","gridw":"3","script":"memorybinding","type":"script","defval_survey_pack_id":"demo_survey","trialtype":"1","swapcount":"3","dispcount":"3"}|1|1|1|1|0|true|memorybinding|1|3|3|3|711|1|2|5|1|1|6|3|1|0|5|1|2|0|2|3|0|0|6|1|0|1|5|5|2|2|{"GameEngine.js":"61fa031fc10c8d55d04ff952c4d14db9","Tools.js":"ca63e8aeadad3fb000f03128ed0b5770","GList.js":"532d667d75f0085221f727470ca83389","KTime.js":"875c9b3225ef5e83b5e6e0ba905a448b","ErrorMan.js":"539cd2c30aa2b5609ee615a040cdbca6","GImage.js":"8a31b421f899c53c1d76057f7aa35dc3","GColor.js":"3f152bebb4545bcef5d255a594dc52e2","memorybinding.js":"ca248b0f5cd99555cbf09db17553ab8b","Entity.js":"7c10dc4ffd31c005841e1db7e3377467","KPosition.js":"a07b31f37c9cb1fa49a6b47bff376522","KAlpha.js":"fdac535470841697614a578b451f6d35","Sprite.js":"cd811fc36d62ac5077fddf578c118bcf","GBox.js":"9c44756dbeb2733973b0bc3ec7784187","memorybinding_shape.js":"dd5e4be10d24c195176a29ea01f5a379","memorybinding_generatetrialset.js":"491124d092c3af76cc4ed38e85623581","GImage_Create.js":"ed2f46cfb944c53b9748d57bd8481fea","GButton.js":"00f4640559587f3c523855146abe359c","memorybinding.json":"1ffe30998176bb13298911f6893075db","GameRunner.js":"4ec5c05e34dd229518088607e762bdc4","KTrigger.js":"359598582677ba151569c2da9b85f2c8","GMap.js":"6f664b3e3d5cef53b028ecbddde836b6","GameParams.js":"51e7eece2f2f5c7486f3c24306bd629e","Trial.js":"6171e3fa7940715f1573d01ebaf67d2f"}|{"":"-1","membinding.png":"e5c71f62b0b1d9ed49a6124df8a2a9d5"}|.
Color Shapes|Color Shapes|script|05f00a3a4d555692bb54fe4faaa281dd|9999|969a60cc-cdb3-44f6-bc08-b622e5047418|31|6138ac33-f239-437a-80f5-99dd9e8d6de6|2020/11/24 15:45:41|c4834269-daef-41c0-ad73-557fcc1ebde9|59.94423791821561|59.014869888475836|android|5661.0MB|49.79011148362787|{"delaytime":"900","difftrialcount":"4","fixationtime":"500","responsedisp3count":"8","shapecount":"3","studytime":"2000","swap3count":"4","trialnum":"8","gridh":"3","gridw":"3","script":"memorybinding","type":"script","defval_survey_pack_id":"demo_survey","trialtype":"0","swapcount":"0","dispcount":"3"}|1|1|2|1|0|true|memorybinding|0|3|3|0|502|0|7|4|1|1|6|6|0|2|3|3|0|1|7|4|1|0|6|6|2|1|3|3|2|2|{"GameEngine.js":"61fa031fc10c8d55d04ff952c4d14db9","Tools.js":"ca63e8aeadad3fb000f03128ed0b5770","GList.js":"532d667d75f0085221f727470ca83389","KTime.js":"875c9b3225ef5e83b5e6e0ba905a448b","ErrorMan.js":"539cd2c30aa2b5609ee615a040cdbca6","GImage.js":"8a31b421f899c53c1d76057f7aa35dc3","GColor.js":"3f152bebb4545bcef5d255a594dc52e2","memorybinding.js":"ca248b0f5cd99555cbf09db17553ab8b","Entity.js":"7c10dc4ffd31c005841e1db7e3377467","KPosition.js":"a07b31f37c9cb1fa49a6b47bff376522","KAlpha.js":"fdac535470841697614a578b451f6d35","Sprite.js":"cd811fc36d62ac5077fddf578c118bcf","GBox.js":"9c44756dbeb2733973b0bc3ec7784187","memorybinding_shape.js":"dd5e4be10d24c195176a29ea01f5a379","memorybinding_generatetrialset.js":"491124d092c3af76cc4ed38e85623581","GImage_Create.js":"ed2f46cfb944c53b9748d57bd8481fea","GButton.js":"00f4640559587f3c523855146abe359c","memorybinding.json":"1ffe30998176bb13298911f6893075db","GameRunner.js":"4ec5c05e34dd229518088607e762bdc4","KTrigger.js":"359598582677ba151569c2da9b85f2c8","GMap.js":"6f664b3e3d5cef53b028ecbddde836b6","GameParams.js":"51e7eece2f2f5c7486f3c24306bd629e","Trial.js":"6171e3fa7940715f1573d01ebaf67d2f"}|{"":"-1","membinding.png":"e5c71f62b0b1d9ed49a6124df8a2a9d5"}|.
Color Shapes|Color Shapes|script|05f00a3a4d555692bb54fe4faaa281dd|9999|969a60cc-cdb3-44f6-bc08-b622e5047418|31|6138ac33-f239-437a-80f5-99dd9e8d6de6|2020/11/24 15:45:46|ea868a9a-bfe9-4314-8fb0-71383cbe37bf|59.83101164649464|58.91756108700617|android|5676.0MB|49.92323497997651|{"delaytime":"900","difftrialcount":"4","fixationtime":"500","responsedisp3count":"8","shapecount":"3","studytime":"2000","swap3count":"4","trialnum":"8","gridh":"3","gridw":"3","script":"memorybinding","type":"script","defval_survey_pack_id":"demo_survey","trialtype":"1","swapcount":"3","dispcount":"3"}|1|1|3|1|0|true|memorybinding|1|3|3|3|562|1|4|2|1|1|2|5|2|2|9|6|0|1|4|5|0|0|2|6|1|2|9|2|1|0|{"GameEngine.js":"61fa031fc10c8d55d04ff952c4d14db9","Tools.js":"ca63e8aeadad3fb000f03128ed0b5770","GList.js":"532d667d75f0085221f727470ca83389","KTime.js":"875c9b3225ef5e83b5e6e0ba905a448b","ErrorMan.js":"539cd2c30aa2b5609ee615a040cdbca6","GImage.js":"8a31b421f899c53c1d76057f7aa35dc3","GColor.js":"3f152bebb4545bcef5d255a594dc52e2","memorybinding.js":"ca248b0f5cd99555cbf09db17553ab8b","Entity.js":"7c10dc4ffd31c005841e1db7e3377467","KPosition.js":"a07b31f37c9cb1fa49a6b47bff376522","KAlpha.js":"fdac535470841697614a578b451f6d35","Sprite.js":"cd811fc36d62ac5077fddf578c118bcf","GBox.js":"9c44756dbeb2733973b0bc3ec7784187","memorybinding_shape.js":"dd5e4be10d24c195176a29ea01f5a379","memorybinding_generatetrialset.js":"491124d092c3af76cc4ed38e85623581","GImage_Create.js":"ed2f46cfb944c53b9748d57bd8481fea","GButton.js":"00f4640559587f3c523855146abe359c","memorybinding.json":"1ffe30998176bb13298911f6893075db","GameRunner.js":"4ec5c05e34dd229518088607e762bdc4","KTrigger.js":"359598582677ba151569c2da9b85f2c8","GMap.js":"6f664b3e3d5cef53b028ecbddde836b6","GameParams.js":"51e7eece2f2f5c7486f3c24306bd629e","Trial.js":"6171e3fa7940715f1573d01ebaf67d2f"}|{"":"-1","membinding.png":"e5c71f62b0b1d9ed49a6124df8a2a9d5"}|.
Color Shapes|Color Shapes|script|05f00a3a4d555692bb54fe4faaa281dd|9999|969a60cc-cdb3-44f6-bc08-b622e5047418|31|6138ac33-f239-437a-80f5-99dd9e8d6de6|2020/11/24 15:45:50|230a72a2-bd57-432a-9266-367caf700c7b|59.87762237762238|59.00349650349651|android|5681.0MB|49.97164040097141|{"delaytime":"900","difftrialcount":"4","fixationtime":"500","responsedisp3count":"8","shapecount":"3","studytime":"2000","swap3count":"4","trialnum":"8","gridh":"3","gridw":"3","script":"memorybinding","type":"script","defval_survey_pack_id":"demo_survey","trialtype":"0","swapcount":"0","dispcount":"3"}|1|1|4|1|0|true|memorybinding|0|3|3|0|760|0|2|5|0|0|3|6|2|1|4|2|2|2|2|5|2|0|3|6|0|1|4|2|1|0|{"GameEngine.js":"61fa031fc10c8d55d04ff952c4d14db9","Tools.js":"ca63e8aeadad3fb000f03128ed0b5770","GList.js":"532d667d75f0085221f727470ca83389","KTime.js":"875c9b3225ef5e83b5e6e0ba905a448b","ErrorMan.js":"539cd2c30aa2b5609ee615a040cdbca6","GImage.js":"8a31b421f899c53c1d76057f7aa35dc3","GColor.js":"3f152bebb4545bcef5d255a594dc52e2","memorybinding.js":"ca248b0f5cd99555cbf09db17553ab8b","Entity.js":"7c10dc4ffd31c005841e1db7e3377467","KPosition.js":"a07b31f37c9cb1fa49a6b47bff376522","KAlpha.js":"fdac535470841697614a578b451f6d35","Sprite.js":"cd811fc36d62ac5077fddf578c118bcf","GBox.js":"9c44756dbeb2733973b0bc3ec7784187","memorybinding_shape.js":"dd5e4be10d24c195176a29ea01f5a379","memorybinding_generatetrialset.js":"491124d092c3af76cc4ed38e85623581","GImage_Create.js":"ed2f46cfb944c53b9748d57bd8481fea","GButton.js":"00f4640559587f3c523855146abe359c","memorybinding.json":"1ffe30998176bb13298911f6893075db","GameRunner.js":"4ec5c05e34dd229518088607e762bdc4","KTrigger.js":"359598582677ba151569c2da9b85f2c8","GMap.js":"6f664b3e3d5cef53b028ecbddde836b6","GameParams.js":"51e7eece2f2f5c7486f3c24306bd629e","Trial.js":"6171e3fa7940715f1573d01ebaf67d2f"}|{"":"-1","membinding.png":"e5c71f62b0b1d9ed49a6124df8a2a9d5"}|.
Color Shapes|Color Shapes|script|05f00a3a4d555692bb54fe4faaa281dd|9999|969a60cc-cdb3-44f6-bc08-b622e5047418|31|6138ac33-f239-437a-80f5-99dd9e8d6de6|2020/11/24 15:45:55|e12aba96-ebbc-40d5-9290-c7d1f8ee67f7|59.763572679509636|58.66900175131349|android|5661.0MB|49.79165743390805|{"delaytime":"900","difftrialcount":"4","fixationtime":"500","responsedisp3count":"8","shapecount":"3","studytime":"2000","swap3count":"4","trialnum":"8","gridh":"3","gridw":"3","script":"memorybinding","type":"script","defval_survey_pack_id":"demo_survey","trialtype":"1","swapcount":"3","dispcount":"3"}|1|1|5|1|0|true|memorybinding|1|3|3|3|773|1|6|4|1|0|7|3|1|1|8|6|0|2|6|3|2|1|7|6|1|2|8|4|2|0|{"GameEngine.js":"61fa031fc10c8d55d04ff952c4d14db9","Tools.js":"ca63e8aeadad3fb000f03128ed0b5770","GList.js":"532d667d75f0085221f727470ca83389","KTime.js":"875c9b3225ef5e83b5e6e0ba905a448b","ErrorMan.js":"539cd2c30aa2b5609ee615a040cdbca6","GImage.js":"8a31b421f899c53c1d76057f7aa35dc3","GColor.js":"3f152bebb4545bcef5d255a594dc52e2","memorybinding.js":"ca248b0f5cd99555cbf09db17553ab8b","Entity.js":"7c10dc4ffd31c005841e1db7e3377467","KPosition.js":"a07b31f37c9cb1fa49a6b47bff376522","KAlpha.js":"fdac535470841697614a578b451f6d35","Sprite.js":"cd811fc36d62ac5077fddf578c118bcf","GBox.js":"9c44756dbeb2733973b0bc3ec7784187","memorybinding_shape.js":"dd5e4be10d24c195176a29ea01f5a379","memorybinding_generatetrialset.js":"491124d092c3af76cc4ed38e85623581","GImage_Create.js":"ed2f46cfb944c53b9748d57bd8481fea","GButton.js":"00f4640559587f3c523855146abe359c","memorybinding.json":"1ffe30998176bb13298911f6893075db","GameRunner.js":"4ec5c05e34dd229518088607e762bdc4","KTrigger.js":"359598582677ba151569c2da9b85f2c8","GMap.js":"6f664b3e3d5cef53b028ecbddde836b6","GameParams.js":"51e7eece2f2f5c7486f3c24306bd629e","Trial.js":"6171e3fa7940715f1573d01ebaf67d2f"}|{"":"-1","membinding.png":"e5c71f62b0b1d9ed49a6124df8a2a9d5"}|.
Color Shapes|Color Shapes|script|05f00a3a4d555692bb54fe4faaa281dd|9999|969a60cc-cdb3-44f6-bc08-b622e5047418|31|6138ac33-f239-437a-80f5-99dd9e8d6de6|2020/11/24 15:45:59|b3a164b3-d247-4524-a299-7939530da8af|60.04985270790845|58.91683661907999|android|5685.0MB|50.00039507618271|{"delaytime":"900","difftrialcount":"4","fixationtime":"500","responsedisp3count":"8","shapecount":"3","studytime":"2000","swap3count":"4","trialnum":"8","gridh":"3","gridw":"3","script":"memorybinding","type":"script","defval_survey_pack_id":"demo_survey","trialtype":"0","swapcount":"0","dispcount":"3"}|1|1|6|1|0|true|memorybinding|0|3|3|0|613|0|6|2|1|2|4|1|1|0|9|4|2|2|6|2|0|2|4|1|2|0|9|4|0|0|{"GameEngine.js":"61fa031fc10c8d55d04ff952c4d14db9","Tools.js":"ca63e8aeadad3fb000f03128ed0b5770","GList.js":"532d667d75f0085221f727470ca83389","KTime.js":"875c9b3225ef5e83b5e6e0ba905a448b","ErrorMan.js":"539cd2c30aa2b5609ee615a040cdbca6","GImage.js":"8a31b421f899c53c1d76057f7aa35dc3","GColor.js":"3f152bebb4545bcef5d255a594dc52e2","memorybinding.js":"ca248b0f5cd99555cbf09db17553ab8b","Entity.js":"7c10dc4ffd31c005841e1db7e3377467","KPosition.js":"a07b31f37c9cb1fa49a6b47bff376522","KAlpha.js":"fdac535470841697614a578b451f6d35","Sprite.js":"cd811fc36d62ac5077fddf578c118bcf","GBox.js":"9c44756dbeb2733973b0bc3ec7784187","memorybinding_shape.js":"dd5e4be10d24c195176a29ea01f5a379","memorybinding_generatetrialset.js":"491124d092c3af76cc4ed38e85623581","GImage_Create.js":"ed2f46cfb944c53b9748d57bd8481fea","GButton.js":"00f4640559587f3c523855146abe359c","memorybinding.json":"1ffe30998176bb13298911f6893075db","GameRunner.js":"4ec5c05e34dd229518088607e762bdc4","KTrigger.js":"359598582677ba151569c2da9b85f2c8","GMap.js":"6f664b3e3d5cef53b028ecbddde836b6","GameParams.js":"51e7eece2f2f5c7486f3c24306bd629e","Trial.js":"6171e3fa7940715f1573d01ebaf67d2f"}|{"":"-1","membinding.png":"e5c71f62b0b1d9ed49a6124df8a2a9d5"}|.
Color Shapes|Color Shapes|script|05f00a3a4d555692bb54fe4faaa281dd|9999|969a60cc-cdb3-44f6-bc08-b622e5047418|31|6138ac33-f239-437a-80f5-99dd9e8d6de6|2020/11/24 15:46:04|8b11ca42-1581-4275-b82a-38294fd8efe2|59.94433740098479|58.87390280453864|android|5671.0MB|49.88084158784897|{"delaytime":"900","difftrialcount":"4","fixationtime":"500","responsedisp3count":"8","shapecount":"3","studytime":"2000","swap3count":"4","trialnum":"8","gridh":"3","gridw":"3","script":"memorybinding","type":"script","defval_survey_pack_id":"demo_survey","trialtype":"1","swapcount":"3","dispcount":"3"}|1|1|7|1|0|true|memorybinding|1|3|3|3|898|0|4|4|1|2|7|1|2|0|2|2|0|0|4|1|1|1|7|2|0|1|2|4|2|1|{"GameEngine.js":"61fa031fc10c8d55d04ff952c4d14db9","Tools.js":"ca63e8aeadad3fb000f03128ed0b5770","GList.js":"532d667d75f0085221f727470ca83389","KTime.js":"875c9b3225ef5e83b5e6e0ba905a448b","ErrorMan.js":"539cd2c30aa2b5609ee615a040cdbca6","GImage.js":"8a31b421f899c53c1d76057f7aa35dc3","GColor.js":"3f152bebb4545bcef5d255a594dc52e2","memorybinding.js":"ca248b0f5cd99555cbf09db17553ab8b","Entity.js":"7c10dc4ffd31c005841e1db7e3377467","KPosition.js":"a07b31f37c9cb1fa49a6b47bff376522","KAlpha.js":"fdac535470841697614a578b451f6d35","Sprite.js":"cd811fc36d62ac5077fddf578c118bcf","GBox.js":"9c44756dbeb2733973b0bc3ec7784187","memorybinding_shape.js":"dd5e4be10d24c195176a29ea01f5a379","memorybinding_generatetrialset.js":"491124d092c3af76cc4ed38e85623581","GImage_Create.js":"ed2f46cfb944c53b9748d57bd8481fea","GButton.js":"00f4640559587f3c523855146abe359c","memorybinding.json":"1ffe30998176bb13298911f6893075db","GameRunner.js":"4ec5c05e34dd229518088607e762bdc4","KTrigger.js":"359598582677ba151569c2da9b85f2c8","GMap.js":"6f664b3e3d5cef53b028ecbddde836b6","GameParams.js":"51e7eece2f2f5c7486f3c24306bd629e","Trial.js":"6171e3fa7940715f1573d01ebaf67d2f"}|{"":"-1","membinding.png":"e5c71f62b0b1d9ed49a6124df8a2a9d5"}|.
Color Shapes|Color Shapes|script|05f00a3a4d555692bb54fe4faaa281dd|9999|969a60cc-cdb3-44f6-bc08-b622e5047418|31|6138ac33-f239-437a-80f5-99dd9e8d6de6|2020/11/24 15:46:08|7fadc10b-5958-4e68-8585-c9b56b59b48c|59.906811626359|59.0193033059685|android|5699.0MB|50.126475910143874|{"delaytime":"900","difftrialcount":"4","fixationtime":"500","responsedisp3count":"8","shapecount":"3","studytime":"2000","swap3count":"4","trialnum":"8","gridh":"3","gridw":"3","script":"memorybinding","type":"script","defval_survey_pack_id":"demo_survey","trialtype":"0","swapcount":"0","dispcount":"3"}|1|1|8|1|0|true|memorybinding|0|3|3|0|702|0|6|3|2|0|2|5|0|0|9|4|0|2|6|3|2|1|2|5|1|2|9|4|1|0|{"GameEngine.js":"61fa031fc10c8d55d04ff952c4d14db9","Tools.js":"ca63e8aeadad3fb000f03128ed0b5770","GList.js":"532d667d75f0085221f727470ca83389","KTime.js":"875c9b3225ef5e83b5e6e0ba905a448b","ErrorMan.js":"539cd2c30aa2b5609ee615a040cdbca6","GImage.js":"8a31b421f899c53c1d76057f7aa35dc3","GColor.js":"3f152bebb4545bcef5d255a594dc52e2","memorybinding.js":"ca248b0f5cd99555cbf09db17553ab8b","Entity.js":"7c10dc4ffd31c005841e1db7e3377467","KPosition.js":"a07b31f37c9cb1fa49a6b47bff376522","KAlpha.js":"fdac535470841697614a578b451f6d35","Sprite.js":"cd811fc36d62ac5077fddf578c118bcf","GBox.js":"9c44756dbeb2733973b0bc3ec7784187","memorybinding_shape.js":"dd5e4be10d24c195176a29ea01f5a379","memorybinding_generatetrialset.js":"491124d092c3af76cc4ed38e85623581","GImage_Create.js":"ed2f46cfb944c53b9748d57bd8481fea","GButton.js":"00f4640559587f3c523855146abe359c","memorybinding.json":"1ffe30998176bb13298911f6893075db","GameRunner.js":"4ec5c05e34dd229518088607e762bdc4","KTrigger.js":"359598582677ba151569c2da9b85f2c8","GMap.js":"6f664b3e3d5cef53b028ecbddde836b6","GameParams.js":"51e7eece2f2f5c7486f3c24306bd629e","Trial.js":"6171e3fa7940715f1573d01ebaf67d2f"}|{"":"-1","membinding.png":"e5c71f62b0b1d9ed49a6124df8a2a9d5"}|.
Color Shapes|Color Shapes|script|05f00a3a4d555692bb54fe4faaa281dd|9999|e41c3c9f-713b-4492-951b-0c6c0816364e|2|bc843c22-551a-4887-83ff-3ff57630e7e1|2020/11/30 11:33:38|f3ede5f4-87dc-4bf8-ba92-d0b24df18bbf|59.772643931059775|59.58929226255959|android|943.0MB|49.29513090426064|{"delaytime":"900","difftrialcount":"4","fixationtime":"500","responsedisp3count":"8","shapecount":"3","studytime":"2000","swap3count":"4","trialnum":"8","gridh":"3","gridw":"3","script":"memorybinding","type":"script","defval_survey_pack_id":"demo_survey","trialtype":"1","swapcount":"3","dispcount":"3"}|1|1|1|1|0|true|memorybinding|1|3|3|3|1635|1|9|4|0|0|6|6|2|2|2|5|0|2|9|6|2|0|6|5|2|1|2|4|1|2|{"GameEngine.js":"61fa031fc10c8d55d04ff952c4d14db9","Tools.js":"ca63e8aeadad3fb000f03128ed0b5770","GList.js":"532d667d75f0085221f727470ca83389","KTime.js":"875c9b3225ef5e83b5e6e0ba905a448b","ErrorMan.js":"539cd2c30aa2b5609ee615a040cdbca6","GImage.js":"8a31b421f899c53c1d76057f7aa35dc3","GColor.js":"3f152bebb4545bcef5d255a594dc52e2","memorybinding.js":"ca248b0f5cd99555cbf09db17553ab8b","Entity.js":"7c10dc4ffd31c005841e1db7e3377467","KPosition.js":"a07b31f37c9cb1fa49a6b47bff376522","KAlpha.js":"fdac535470841697614a578b451f6d35","Sprite.js":"cd811fc36d62ac5077fddf578c118bcf","GBox.js":"9c44756dbeb2733973b0bc3ec7784187","memorybinding_shape.js":"dd5e4be10d24c195176a29ea01f5a379","memorybinding_generatetrialset.js":"491124d092c3af76cc4ed38e85623581","GImage_Create.js":"ed2f46cfb944c53b9748d57bd8481fea","GButton.js":"00f4640559587f3c523855146abe359c","memorybinding.json":"1ffe30998176bb13298911f6893075db","GameRunner.js":"4ec5c05e34dd229518088607e762bdc4","KTrigger.js":"359598582677ba151569c2da9b85f2c8","GMap.js":"6f664b3e3d5cef53b028ecbddde836b6","GameParams.js":"51e7eece2f2f5c7486f3c24306bd629e","Trial.js":"6171e3fa7940715f1573d01ebaf67d2f"}|{"":"-1","membinding.png":"e5c71f62b0b1d9ed49a6124df8a2a9d5"}|.
Color Shapes|Color Shapes|script|05f00a3a4d555692bb54fe4faaa281dd|9999|e41c3c9f-713b-4492-951b-0c6c0816364e|2|bc843c22-551a-4887-83ff-3ff57630e7e1|2020/11/30 11:33:43|566b8aea-5553-4779-9d64-15ee3e135ac6|59.96055226824457|59.96055226824457|android|968.0MB|50.61284536953341|{"delaytime":"900","difftrialcount":"4","fixationtime":"500","responsedisp3count":"8","shapecount":"3","studytime":"2000","swap3count":"4","trialnum":"8","gridh":"3","gridw":"3","script":"memorybinding","type":"script","defval_survey_pack_id":"demo_survey","trialtype":"0","swapcount":"0","dispcount":"3"}|1|1|2|1|0|true|memorybinding|0|3|3|0|1265|0|9|4|0|2|2|6|2|1|4|3|1|2|9|4|0|1|2|6|1|1|4|3|2|2|{"GameEngine.js":"61fa031fc10c8d55d04ff952c4d14db9","Tools.js":"ca63e8aeadad3fb000f03128ed0b5770","GList.js":"532d667d75f0085221f727470ca83389","KTime.js":"875c9b3225ef5e83b5e6e0ba905a448b","ErrorMan.js":"539cd2c30aa2b5609ee615a040cdbca6","GImage.js":"8a31b421f899c53c1d76057f7aa35dc3","GColor.js":"3f152bebb4545bcef5d255a594dc52e2","memorybinding.js":"ca248b0f5cd99555cbf09db17553ab8b","Entity.js":"7c10dc4ffd31c005841e1db7e3377467","KPosition.js":"a07b31f37c9cb1fa49a6b47bff376522","KAlpha.js":"fdac535470841697614a578b451f6d35","Sprite.js":"cd811fc36d62ac5077fddf578c118bcf","GBox.js":"9c44756dbeb2733973b0bc3ec7784187","memorybinding_shape.js":"dd5e4be10d24c195176a29ea01f5a379","memorybinding_generatetrialset.js":"491124d092c3af76cc4ed38e85623581","GImage_Create.js":"ed2f46cfb944c53b9748d57bd8481fea","GButton.js":"00f4640559587f3c523855146abe359c","memorybinding.json":"1ffe30998176bb13298911f6893075db","GameRunner.js":"4ec5c05e34dd229518088607e762bdc4","KTrigger.js":"359598582677ba151569c2da9b85f2c8","GMap.js":"6f664b3e3d5cef53b028ecbddde836b6","GameParams.js":"51e7eece2f2f5c7486f3c24306bd629e","Trial.js":"6171e3fa7940715f1573d01ebaf67d2f"}|{"":"-1","membinding.png":"e5c71f62b0b1d9ed49a6124df8a2a9d5"}|.
Color Shapes|Color Shapes|script|05f00a3a4d555692bb54fe4faaa281dd|9999|e41c3c9f-713b-4492-951b-0c6c0816364e|2|bc843c22-551a-4887-83ff-3ff57630e7e1|2020/11/30 11:33:48|20f495d4-fa83-4761-9a4e-a56daff2aad4|60.095200317334395|59.896866322887746|android|973.0MB|50.8340287824098|{"delaytime":"900","difftrialcount":"4","fixationtime":"500","responsedisp3count":"8","shapecount":"3","studytime":"2000","swap3count":"4","trialnum":"8","gridh":"3","gridw":"3","script":"memorybinding","type":"script","defval_survey_pack_id":"demo_survey","trialtype":"1","swapcount":"3","dispcount":"3"}|1|1|3|1|0|true|memorybinding|1|3|3|3|1246|1|4|4|1|2|7|1|1|1|3|6|2|1|4|1|0|2|7|6|0|1|3|4|1|0|{"GameEngine.js":"61fa031fc10c8d55d04ff952c4d14db9","Tools.js":"ca63e8aeadad3fb000f03128ed0b5770","GList.js":"532d667d75f0085221f727470ca83389","KTime.js":"875c9b3225ef5e83b5e6e0ba905a448b","ErrorMan.js":"539cd2c30aa2b5609ee615a040cdbca6","GImage.js":"8a31b421f899c53c1d76057f7aa35dc3","GColor.js":"3f152bebb4545bcef5d255a594dc52e2","memorybinding.js":"ca248b0f5cd99555cbf09db17553ab8b","Entity.js":"7c10dc4ffd31c005841e1db7e3377467","KPosition.js":"a07b31f37c9cb1fa49a6b47bff376522","KAlpha.js":"fdac535470841697614a578b451f6d35","Sprite.js":"cd811fc36d62ac5077fddf578c118bcf","GBox.js":"9c44756dbeb2733973b0bc3ec7784187","memorybinding_shape.js":"dd5e4be10d24c195176a29ea01f5a379","memorybinding_generatetrialset.js":"491124d092c3af76cc4ed38e85623581","GImage_Create.js":"ed2f46cfb944c53b9748d57bd8481fea","GButton.js":"00f4640559587f3c523855146abe359c","memorybinding.json":"1ffe30998176bb13298911f6893075db","GameRunner.js":"4ec5c05e34dd229518088607e762bdc4","KTrigger.js":"359598582677ba151569c2da9b85f2c8","GMap.js":"6f664b3e3d5cef53b028ecbddde836b6","GameParams.js":"51e7eece2f2f5c7486f3c24306bd629e","Trial.js":"6171e3fa7940715f1573d01ebaf67d2f"}|{"":"-1","membinding.png":"e5c71f62b0b1d9ed49a6124df8a2a9d5"}|.
Color Shapes|Color Shapes|script|05f00a3a4d555692bb54fe4faaa281dd|9999|e41c3c9f-713b-4492-951b-0c6c0816364e|2|bc843c22-551a-4887-83ff-3ff57630e7e1|2020/11/30 11:33:54|9dcc3abf-0f90-44f2-bb4f-81955ccd913b|59.99277195518612|59.812070834839176|android|969.0MB|50.64283979913934|{"delaytime":"900","difftrialcount":"4","fixationtime":"500","responsedisp3count":"8","shapecount":"3","studytime":"2000","swap3count":"4","trialnum":"8","gridh":"3","gridw":"3","script":"memorybinding","type":"script","defval_survey_pack_id":"demo_survey","trialtype":"1","swapcount":"3","dispcount":"3"}|1|1|4|1|0|true|memorybinding|1|3|3|3|1750|1|6|5|1|2|5|2|2|0|8|6|1|1|6|2|1|0|5|6|2|2|8|5|0|0|{"GameEngine.js":"61fa031fc10c8d55d04ff952c4d14db9","Tools.js":"ca63e8aeadad3fb000f03128ed0b5770","GList.js":"532d667d75f0085221f727470ca83389","KTime.js":"875c9b3225ef5e83b5e6e0ba905a448b","ErrorMan.js":"539cd2c30aa2b5609ee615a040cdbca6","GImage.js":"8a31b421f899c53c1d76057f7aa35dc3","GColor.js":"3f152bebb4545bcef5d255a594dc52e2","memorybinding.js":"ca248b0f5cd99555cbf09db17553ab8b","Entity.js":"7c10dc4ffd31c005841e1db7e3377467","KPosition.js":"a07b31f37c9cb1fa49a6b47bff376522","KAlpha.js":"fdac535470841697614a578b451f6d35","Sprite.js":"cd811fc36d62ac5077fddf578c118bcf","GBox.js":"9c44756dbeb2733973b0bc3ec7784187","memorybinding_shape.js":"dd5e4be10d24c195176a29ea01f5a379","memorybinding_generatetrialset.js":"491124d092c3af76cc4ed38e85623581","GImage_Create.js":"ed2f46cfb944c53b9748d57bd8481fea","GButton.js":"00f4640559587f3c523855146abe359c","memorybinding.json":"1ffe30998176bb13298911f6893075db","GameRunner.js":"4ec5c05e34dd229518088607e762bdc4","KTrigger.js":"359598582677ba151569c2da9b85f2c8","GMap.js":"6f664b3e3d5cef53b028ecbddde836b6","GameParams.js":"51e7eece2f2f5c7486f3c24306bd629e","Trial.js":"6171e3fa7940715f1573d01ebaf67d2f"}|{"":"-1","membinding.png":"e5c71f62b0b1d9ed49a6124df8a2a9d5"}|.
Color Shapes|Color Shapes|script|05f00a3a4d555692bb54fe4faaa281dd|9999|e41c3c9f-713b-4492-951b-0c6c0816364e|2|bc843c22-551a-4887-83ff-3ff57630e7e1|2020/11/30 11:33:59|314885c5-2d6a-490a-9607-d3e8c190930d|60.05034160373966|59.331175836030205|android|1082.0MB|56.523380351812214|{"delaytime":"900","difftrialcount":"4","fixationtime":"500","responsedisp3count":"8","shapecount":"3","studytime":"2000","swap3count":"4","trialnum":"8","gridh":"3","gridw":"3","script":"memorybinding","type":"script","defval_survey_pack_id":"demo_survey","trialtype":"0","swapcount":"0","dispcount":"3"}|1|1|5|1|0|true|memorybinding|0|3|3|0|1778|0|9|6|2|1|3|2|2|0|7|4|1|0|9|6|0|1|3|2|0|2|7|4|0|0|{"GameEngine.js":"61fa031fc10c8d55d04ff952c4d14db9","Tools.js":"ca63e8aeadad3fb000f03128ed0b5770","GList.js":"532d667d75f0085221f727470ca83389","KTime.js":"875c9b3225ef5e83b5e6e0ba905a448b","ErrorMan.js":"539cd2c30aa2b5609ee615a040cdbca6","GImage.js":"8a31b421f899c53c1d76057f7aa35dc3","GColor.js":"3f152bebb4545bcef5d255a594dc52e2","memorybinding.js":"ca248b0f5cd99555cbf09db17553ab8b","Entity.js":"7c10dc4ffd31c005841e1db7e3377467","KPosition.js":"a07b31f37c9cb1fa49a6b47bff376522","KAlpha.js":"fdac535470841697614a578b451f6d35","Sprite.js":"cd811fc36d62ac5077fddf578c118bcf","GBox.js":"9c44756dbeb2733973b0bc3ec7784187","memorybinding_shape.js":"dd5e4be10d24c195176a29ea01f5a379","memorybinding_generatetrialset.js":"491124d092c3af76cc4ed38e85623581","GImage_Create.js":"ed2f46cfb944c53b9748d57bd8481fea","GButton.js":"00f4640559587f3c523855146abe359c","memorybinding.json":"1ffe30998176bb13298911f6893075db","GameRunner.js":"4ec5c05e34dd229518088607e762bdc4","KTrigger.js":"359598582677ba151569c2da9b85f2c8","GMap.js":"6f664b3e3d5cef53b028ecbddde836b6","GameParams.js":"51e7eece2f2f5c7486f3c24306bd629e","Trial.js":"6171e3fa7940715f1573d01ebaf67d2f"}|{"":"-1","membinding.png":"e5c71f62b0b1d9ed49a6124df8a2a9d5"}|.
Color Shapes|Color Shapes|script|05f00a3a4d555692bb54fe4faaa281dd|9999|e41c3c9f-713b-4492-951b-0c6c0816364e|2|bc843c22-551a-4887-83ff-3ff57630e7e1|2020/11/30 11:34:04|657a9dfb-a8b2-4ea1-841e-3b56a4f85444|59.8825831702544|59.686888454011736|android|1073.0MB|56.09815320011998|{"delaytime":"900","difftrialcount":"4","fixationtime":"500","responsedisp3count":"8","shapecount":"3","studytime":"2000","swap3count":"4","trialnum":"8","gridh":"3","gridw":"3","script":"memorybinding","type":"script","defval_survey_pack_id":"demo_survey","trialtype":"1","swapcount":"3","dispcount":"3"}|1|1|6|1|0|true|memorybinding|1|3|3|3|1319|1|4|4|0|0|7|5|0|1|5|3|0|2|4|5|1|1|7|3|2|1|5|4|1|2|{"GameEngine.js":"61fa031fc10c8d55d04ff952c4d14db9","Tools.js":"ca63e8aeadad3fb000f03128ed0b5770","GList.js":"532d667d75f0085221f727470ca83389","KTime.js":"875c9b3225ef5e83b5e6e0ba905a448b","ErrorMan.js":"539cd2c30aa2b5609ee615a040cdbca6","GImage.js":"8a31b421f899c53c1d76057f7aa35dc3","GColor.js":"3f152bebb4545bcef5d255a594dc52e2","memorybinding.js":"ca248b0f5cd99555cbf09db17553ab8b","Entity.js":"7c10dc4ffd31c005841e1db7e3377467","KPosition.js":"a07b31f37c9cb1fa49a6b47bff376522","KAlpha.js":"fdac535470841697614a578b451f6d35","Sprite.js":"cd811fc36d62ac5077fddf578c118bcf","GBox.js":"9c44756dbeb2733973b0bc3ec7784187","memorybinding_shape.js":"dd5e4be10d24c195176a29ea01f5a379","memorybinding_generatetrialset.js":"491124d092c3af76cc4ed38e85623581","GImage_Create.js":"ed2f46cfb944c53b9748d57bd8481fea","GButton.js":"00f4640559587f3c523855146abe359c","memorybinding.json":"1ffe30998176bb13298911f6893075db","GameRunner.js":"4ec5c05e34dd229518088607e762bdc4","KTrigger.js":"359598582677ba151569c2da9b85f2c8","GMap.js":"6f664b3e3d5cef53b028ecbddde836b6","GameParams.js":"51e7eece2f2f5c7486f3c24306bd629e","Trial.js":"6171e3fa7940715f1573d01ebaf67d2f"}|{"":"-1","membinding.png":"e5c71f62b0b1d9ed49a6124df8a2a9d5"}|.
Color Shapes|Color Shapes|script|05f00a3a4d555692bb54fe4faaa281dd|9999|e41c3c9f-713b-4492-951b-0c6c0816364e|2|bc843c22-551a-4887-83ff-3ff57630e7e1|2020/11/30 11:34:10|e3bfa875-dd1a-4579-a768-017b0f58d80d|60.03463536655763|60.03463536655763|android|1070.0MB|55.92430793464887|{"delaytime":"900","difftrialcount":"4","fixationtime":"500","responsedisp3count":"8","shapecount":"3","studytime":"2000","swap3count":"4","trialnum":"8","gridh":"3","gridw":"3","script":"memorybinding","type":"script","defval_survey_pack_id":"demo_survey","trialtype":"0","swapcount":"0","dispcount":"3"}|1|1|7|1|0|true|memorybinding|0|3|3|0|1400|0|3|2|1|1|6|4|1|0|4|6|1|2|3|2|0|2|6|4|0|1|4|6|2|2|{"GameEngine.js":"61fa031fc10c8d55d04ff952c4d14db9","Tools.js":"ca63e8aeadad3fb000f03128ed0b5770","GList.js":"532d667d75f0085221f727470ca83389","KTime.js":"875c9b3225ef5e83b5e6e0ba905a448b","ErrorMan.js":"539cd2c30aa2b5609ee615a040cdbca6","GImage.js":"8a31b421f899c53c1d76057f7aa35dc3","GColor.js":"3f152bebb4545bcef5d255a594dc52e2","memorybinding.js":"ca248b0f5cd99555cbf09db17553ab8b","Entity.js":"7c10dc4ffd31c005841e1db7e3377467","KPosition.js":"a07b31f37c9cb1fa49a6b47bff376522","KAlpha.js":"fdac535470841697614a578b451f6d35","Sprite.js":"cd811fc36d62ac5077fddf578c118bcf","GBox.js":"9c44756dbeb2733973b0bc3ec7784187","memorybinding_shape.js":"dd5e4be10d24c195176a29ea01f5a379","memorybinding_generatetrialset.js":"491124d092c3af76cc4ed38e85623581","GImage_Create.js":"ed2f46cfb944c53b9748d57bd8481fea","GButton.js":"00f4640559587f3c523855146abe359c","memorybinding.json":"1ffe30998176bb13298911f6893075db","GameRunner.js":"4ec5c05e34dd229518088607e762bdc4","KTrigger.js":"359598582677ba151569c2da9b85f2c8","GMap.js":"6f664b3e3d5cef53b028ecbddde836b6","GameParams.js":"51e7eece2f2f5c7486f3c24306bd629e","Trial.js":"6171e3fa7940715f1573d01ebaf67d2f"}|{"":"-1","membinding.png":"e5c71f62b0b1d9ed49a6124df8a2a9d5"}|.
Color Shapes|Color Shapes|script|05f00a3a4d555692bb54fe4faaa281dd|9999|e41c3c9f-713b-4492-951b-0c6c0816364e|2|bc843c22-551a-4887-83ff-3ff57630e7e1|2020/11/30 11:34:15|c529070f-1901-48db-a1f4-396be5b06540|59.860383944153575|59.860383944153575|android|1071.0MB|55.96532072615086|{"delaytime":"900","difftrialcount":"4","fixationtime":"500","responsedisp3count":"8","shapecount":"3","studytime":"2000","swap3count":"4","trialnum":"8","gridh":"3","gridw":"3","script":"memorybinding","type":"script","defval_survey_pack_id":"demo_survey","trialtype":"0","swapcount":"0","dispcount":"3"}|1|1|8|1|0|true|memorybinding|0|3|3|0|1935|0|4|2|1|2|8|3|2|0|9|6|2|2|4|2|1|0|8|3|0|1|9|6|1|1|{"GameEngine.js":"61fa031fc10c8d55d04ff952c4d14db9","Tools.js":"ca63e8aeadad3fb000f03128ed0b5770","GList.js":"532d667d75f0085221f727470ca83389","KTime.js":"875c9b3225ef5e83b5e6e0ba905a448b","ErrorMan.js":"539cd2c30aa2b5609ee615a040cdbca6","GImage.js":"8a31b421f899c53c1d76057f7aa35dc3","GColor.js":"3f152bebb4545bcef5d255a594dc52e2","memorybinding.js":"ca248b0f5cd99555cbf09db17553ab8b","Entity.js":"7c10dc4ffd31c005841e1db7e3377467","KPosition.js":"a07b31f37c9cb1fa49a6b47bff376522","KAlpha.js":"fdac535470841697614a578b451f6d35","Sprite.js":"cd811fc36d62ac5077fddf578c118bcf","GBox.js":"9c44756dbeb2733973b0bc3ec7784187","memorybinding_shape.js":"dd5e4be10d24c195176a29ea01f5a379","memorybinding_generatetrialset.js":"491124d092c3af76cc4ed38e85623581","GImage_Create.js":"ed2f46cfb944c53b9748d57bd8481fea","GButton.js":"00f4640559587f3c523855146abe359c","memorybinding.json":"1ffe30998176bb13298911f6893075db","GameRunner.js":"4ec5c05e34dd229518088607e762bdc4","KTrigger.js":"359598582677ba151569c2da9b85f2c8","GMap.js":"6f664b3e3d5cef53b028ecbddde836b6","GameParams.js":"51e7eece2f2f5c7486f3c24306bd629e","Trial.js":"6171e3fa7940715f1573d01ebaf67d2f"}|{"":"-1","membinding.png":"e5c71f62b0b1d9ed49a6124df8a2a9d5"}|.
Color Shapes|Color Shapes|script|05f00a3a4d555692bb54fe4faaa281dd|9999|51c6a6db-248b-4921-bb8f-cf06fbe6af8a|3|4245cd88-68ad-4f49-957f-8593e00d49d8|2020/11/30 11:44:30|63018a84-466f-4afc-98bf-6be3d06223be|59.845106782445434|59.141046702651956|android|796.0MB|41.62655506834445|{"delaytime":"900","difftrialcount":"4","fixationtime":"500","responsedisp3count":"8","shapecount":"3","studytime":"2000","swap3count":"4","trialnum":"8","gridh":"3","gridw":"3","script":"memorybinding","type":"script","defval_survey_pack_id":"demo_survey","trialtype":"0","swapcount":"0","dispcount":"3"}|1|1|1|1|0|true|memorybinding|0|3|3|0|440|1|2|5|2|2|5|4|1|0|6|2|0|2|2|5|0|1|5|4|1|2|6|2|0|0|{"GameEngine.js":"61fa031fc10c8d55d04ff952c4d14db9","Tools.js":"ca63e8aeadad3fb000f03128ed0b5770","GList.js":"532d667d75f0085221f727470ca83389","KTime.js":"875c9b3225ef5e83b5e6e0ba905a448b","ErrorMan.js":"539cd2c30aa2b5609ee615a040cdbca6","GImage.js":"8a31b421f899c53c1d76057f7aa35dc3","GColor.js":"3f152bebb4545bcef5d255a594dc52e2","memorybinding.js":"ca248b0f5cd99555cbf09db17553ab8b","Entity.js":"7c10dc4ffd31c005841e1db7e3377467","KPosition.js":"a07b31f37c9cb1fa49a6b47bff376522","KAlpha.js":"fdac535470841697614a578b451f6d35","Sprite.js":"cd811fc36d62ac5077fddf578c118bcf","GBox.js":"9c44756dbeb2733973b0bc3ec7784187","memorybinding_shape.js":"dd5e4be10d24c195176a29ea01f5a379","memorybinding_generatetrialset.js":"491124d092c3af76cc4ed38e85623581","GImage_Create.js":"ed2f46cfb944c53b9748d57bd8481fea","GButton.js":"00f4640559587f3c523855146abe359c","memorybinding.json":"1ffe30998176bb13298911f6893075db","GameRunner.js":"4ec5c05e34dd229518088607e762bdc4","KTrigger.js":"359598582677ba151569c2da9b85f2c8","GMap.js":"6f664b3e3d5cef53b028ecbddde836b6","GameParams.js":"51e7eece2f2f5c7486f3c24306bd629e","Trial.js":"6171e3fa7940715f1573d01ebaf67d2f"}|{"":"-1","membinding.png":"e5c71f62b0b1d9ed49a6124df8a2a9d5"}|.
Color Shapes|Color Shapes|script|05f00a3a4d555692bb54fe4faaa281dd|9999|51c6a6db-248b-4921-bb8f-cf06fbe6af8a|3|4245cd88-68ad-4f49-957f-8593e00d49d8|2020/11/30 11:44:34|b134537a-6064-4d10-8f1b-3b88300ecc9d|60.01890359168242|59.54631379962193|android|788.0MB|41.180311411554186|{"delaytime":"900","difftrialcount":"4","fixationtime":"500","responsedisp3count":"8","shapecount":"3","studytime":"2000","swap3count":"4","trialnum":"8","gridh":"3","gridw":"3","script":"memorybinding","type":"script","defval_survey_pack_id":"demo_survey","trialtype":"1","swapcount":"3","dispcount":"3"}|1|1|2|1|0|true|memorybinding|1|3|3|3|432|1|7|3|2|1|4|6|0|0|3|2|1|0|7|6|1|2|4|2|2|2|3|3|1|1|{"GameEngine.js":"61fa031fc10c8d55d04ff952c4d14db9","Tools.js":"ca63e8aeadad3fb000f03128ed0b5770","GList.js":"532d667d75f0085221f727470ca83389","KTime.js":"875c9b3225ef5e83b5e6e0ba905a448b","ErrorMan.js":"539cd2c30aa2b5609ee615a040cdbca6","GImage.js":"8a31b421f899c53c1d76057f7aa35dc3","GColor.js":"3f152bebb4545bcef5d255a594dc52e2","memorybinding.js":"ca248b0f5cd99555cbf09db17553ab8b","Entity.js":"7c10dc4ffd31c005841e1db7e3377467","KPosition.js":"a07b31f37c9cb1fa49a6b47bff376522","KAlpha.js":"fdac535470841697614a578b451f6d35","Sprite.js":"cd811fc36d62ac5077fddf578c118bcf","GBox.js":"9c44756dbeb2733973b0bc3ec7784187","memorybinding_shape.js":"dd5e4be10d24c195176a29ea01f5a379","memorybinding_generatetrialset.js":"491124d092c3af76cc4ed38e85623581","GImage_Create.js":"ed2f46cfb944c53b9748d57bd8481fea","GButton.js":"00f4640559587f3c523855146abe359c","memorybinding.json":"1ffe30998176bb13298911f6893075db","GameRunner.js":"4ec5c05e34dd229518088607e762bdc4","KTrigger.js":"359598582677ba151569c2da9b85f2c8","GMap.js":"6f664b3e3d5cef53b028ecbddde836b6","GameParams.js":"51e7eece2f2f5c7486f3c24306bd629e","Trial.js":"6171e3fa7940715f1573d01ebaf67d2f"}|{"":"-1","membinding.png":"e5c71f62b0b1d9ed49a6124df8a2a9d5"}|.
Color Shapes|Color Shapes|script|05f00a3a4d555692bb54fe4faaa281dd|9999|51c6a6db-248b-4921-bb8f-cf06fbe6af8a|3|4245cd88-68ad-4f49-957f-8593e00d49d8|2020/11/30 11:44:40|65245aa3-9c7e-4156-84fc-c2c6ea4ab125|59.866962305986696|59.497413155949744|android|846.0MB|44.19322125890906|{"delaytime":"900","difftrialcount":"4","fixationtime":"500","responsedisp3count":"8","shapecount":"3","studytime":"2000","swap3count":"4","trialnum":"8","gridh":"3","gridw":"3","script":"memorybinding","type":"script","defval_survey_pack_id":"demo_survey","trialtype":"0","swapcount":"0","dispcount":"3"}|1|1|3|1|0|true|memorybinding|0|3|3|0|1640|1|7|2|1|0|9|1|1|1|8|6|0|0|7|2|0|1|9|1|2|0|8|6|2|2|{"GameEngine.js":"61fa031fc10c8d55d04ff952c4d14db9","Tools.js":"ca63e8aeadad3fb000f03128ed0b5770","GList.js":"532d667d75f0085221f727470ca83389","KTime.js":"875c9b3225ef5e83b5e6e0ba905a448b","ErrorMan.js":"539cd2c30aa2b5609ee615a040cdbca6","GImage.js":"8a31b421f899c53c1d76057f7aa35dc3","GColor.js":"3f152bebb4545bcef5d255a594dc52e2","memorybinding.js":"ca248b0f5cd99555cbf09db17553ab8b","Entity.js":"7c10dc4ffd31c005841e1db7e3377467","KPosition.js":"a07b31f37c9cb1fa49a6b47bff376522","KAlpha.js":"fdac535470841697614a578b451f6d35","Sprite.js":"cd811fc36d62ac5077fddf578c118bcf","GBox.js":"9c44756dbeb2733973b0bc3ec7784187","memorybinding_shape.js":"dd5e4be10d24c195176a29ea01f5a379","memorybinding_generatetrialset.js":"491124d092c3af76cc4ed38e85623581","GImage_Create.js":"ed2f46cfb944c53b9748d57bd8481fea","GButton.js":"00f4640559587f3c523855146abe359c","memorybinding.json":"1ffe30998176bb13298911f6893075db","GameRunner.js":"4ec5c05e34dd229518088607e762bdc4","KTrigger.js":"359598582677ba151569c2da9b85f2c8","GMap.js":"6f664b3e3d5cef53b028ecbddde836b6","GameParams.js":"51e7eece2f2f5c7486f3c24306bd629e","Trial.js":"6171e3fa7940715f1573d01ebaf67d2f"}|{"":"-1","membinding.png":"e5c71f62b0b1d9ed49a6124df8a2a9d5"}|.
Color Shapes|Color Shapes|script|05f00a3a4d555692bb54fe4faaa281dd|9999|51c6a6db-248b-4921-bb8f-cf06fbe6af8a|3|4245cd88-68ad-4f49-957f-8593e00d49d8|2020/11/30 11:44:48|bb635ce8-231b-4898-9352-6dbe9167e52d|60.120705663881154|59.76557966809794|android|907.0MB|47.399972658139|{"delaytime":"900","difftrialcount":"4","fixationtime":"500","responsedisp3count":"8","shapecount":"3","studytime":"2000","swap3count":"4","trialnum":"8","gridh":"3","gridw":"3","script":"memorybinding","type":"script","defval_survey_pack_id":"demo_survey","trialtype":"0","swapcount":"0","dispcount":"3"}|1|1|4|1|0|true|memorybinding|0|3|3|0|4817|1|6|4|0|0|9|6|1|0|8|2|1|1|6|4|0|2|9|6|0|1|8|2|1|2|{"GameEngine.js":"61fa031fc10c8d55d04ff952c4d14db9","Tools.js":"ca63e8aeadad3fb000f03128ed0b5770","GList.js":"532d667d75f0085221f727470ca83389","KTime.js":"875c9b3225ef5e83b5e6e0ba905a448b","ErrorMan.js":"539cd2c30aa2b5609ee615a040cdbca6","GImage.js":"8a31b421f899c53c1d76057f7aa35dc3","GColor.js":"3f152bebb4545bcef5d255a594dc52e2","memorybinding.js":"ca248b0f5cd99555cbf09db17553ab8b","Entity.js":"7c10dc4ffd31c005841e1db7e3377467","KPosition.js":"a07b31f37c9cb1fa49a6b47bff376522","KAlpha.js":"fdac535470841697614a578b451f6d35","Sprite.js":"cd811fc36d62ac5077fddf578c118bcf","GBox.js":"9c44756dbeb2733973b0bc3ec7784187","memorybinding_shape.js":"dd5e4be10d24c195176a29ea01f5a379","memorybinding_generatetrialset.js":"491124d092c3af76cc4ed38e85623581","GImage_Create.js":"ed2f46cfb944c53b9748d57bd8481fea","GButton.js":"00f4640559587f3c523855146abe359c","memorybinding.json":"1ffe30998176bb13298911f6893075db","GameRunner.js":"4ec5c05e34dd229518088607e762bdc4","KTrigger.js":"359598582677ba151569c2da9b85f2c8","GMap.js":"6f664b3e3d5cef53b028ecbddde836b6","GameParams.js":"51e7eece2f2f5c7486f3c24306bd629e","Trial.js":"6171e3fa7940715f1573d01ebaf67d2f"}|{"":"-1","membinding.png":"e5c71f62b0b1d9ed49a6124df8a2a9d5"}|.
Color Shapes|Color Shapes|script|05f00a3a4d555692bb54fe4faaa281dd|9999|51c6a6db-248b-4921-bb8f-cf06fbe6af8a|3|4245cd88-68ad-4f49-957f-8593e00d49d8|2020/11/30 11:44:53|f5473753-994b-40d6-ab09-179c724a0d3e|59.90380411018802|59.685177087888064|android|916.0MB|47.8917180686852|{"delaytime":"900","difftrialcount":"4","fixationtime":"500","responsedisp3count":"8","shapecount":"3","studytime":"2000","swap3count":"4","trialnum":"8","gridh":"3","gridw":"3","script":"memorybinding","type":"script","defval_survey_pack_id":"demo_survey","trialtype":"1","swapcount":"3","dispcount":"3"}|1|1|5|1|0|true|memorybinding|1|3|3|3|747|1|4|4|1|2|3|5|2|0|6|6|2|1|4|5|1|1|3|6|0|0|6|4|1|0|{"GameEngine.js":"61fa031fc10c8d55d04ff952c4d14db9","Tools.js":"ca63e8aeadad3fb000f03128ed0b5770","GList.js":"532d667d75f0085221f727470ca83389","KTime.js":"875c9b3225ef5e83b5e6e0ba905a448b","ErrorMan.js":"539cd2c30aa2b5609ee615a040cdbca6","GImage.js":"8a31b421f899c53c1d76057f7aa35dc3","GColor.js":"3f152bebb4545bcef5d255a594dc52e2","memorybinding.js":"ca248b0f5cd99555cbf09db17553ab8b","Entity.js":"7c10dc4ffd31c005841e1db7e3377467","KPosition.js":"a07b31f37c9cb1fa49a6b47bff376522","KAlpha.js":"fdac535470841697614a578b451f6d35","Sprite.js":"cd811fc36d62ac5077fddf578c118bcf","GBox.js":"9c44756dbeb2733973b0bc3ec7784187","memorybinding_shape.js":"dd5e4be10d24c195176a29ea01f5a379","memorybinding_generatetrialset.js":"491124d092c3af76cc4ed38e85623581","GImage_Create.js":"ed2f46cfb944c53b9748d57bd8481fea","GButton.js":"00f4640559587f3c523855146abe359c","memorybinding.json":"1ffe30998176bb13298911f6893075db","GameRunner.js":"4ec5c05e34dd229518088607e762bdc4","KTrigger.js":"359598582677ba151569c2da9b85f2c8","GMap.js":"6f664b3e3d5cef53b028ecbddde836b6","GameParams.js":"51e7eece2f2f5c7486f3c24306bd629e","Trial.js":"6171e3fa7940715f1573d01ebaf67d2f"}|{"":"-1","membinding.png":"e5c71f62b0b1d9ed49a6124df8a2a9d5"}|.
Color Shapes|Color Shapes|script|05f00a3a4d555692bb54fe4faaa281dd|9999|51c6a6db-248b-4921-bb8f-cf06fbe6af8a|3|4245cd88-68ad-4f49-957f-8593e00d49d8|2020/11/30 11:44:57|8b6b1ec0-df82-4690-b83a-a603a0eacf9a|60.09898656610888|59.86330426584963|android|914.0MB|47.77541313756017|{"delaytime":"900","difftrialcount":"4","fixationtime":"500","responsedisp3count":"8","shapecount":"3","studytime":"2000","swap3count":"4","trialnum":"8","gridh":"3","gridw":"3","script":"memorybinding","type":"script","defval_survey_pack_id":"demo_survey","trialtype":"1","swapcount":"3","dispcount":"3"}|1|1|6|1|0|true|memorybinding|1|3|3|3|437|1|3|6|2|0|9|4|0|0|5|1|1|0|3|4|1|1|9|1|2|2|5|6|0|2|{"GameEngine.js":"61fa031fc10c8d55d04ff952c4d14db9","Tools.js":"ca63e8aeadad3fb000f03128ed0b5770","GList.js":"532d667d75f0085221f727470ca83389","KTime.js":"875c9b3225ef5e83b5e6e0ba905a448b","ErrorMan.js":"539cd2c30aa2b5609ee615a040cdbca6","GImage.js":"8a31b421f899c53c1d76057f7aa35dc3","GColor.js":"3f152bebb4545bcef5d255a594dc52e2","memorybinding.js":"ca248b0f5cd99555cbf09db17553ab8b","Entity.js":"7c10dc4ffd31c005841e1db7e3377467","KPosition.js":"a07b31f37c9cb1fa49a6b47bff376522","KAlpha.js":"fdac535470841697614a578b451f6d35","Sprite.js":"cd811fc36d62ac5077fddf578c118bcf","GBox.js":"9c44756dbeb2733973b0bc3ec7784187","memorybinding_shape.js":"dd5e4be10d24c195176a29ea01f5a379","memorybinding_generatetrialset.js":"491124d092c3af76cc4ed38e85623581","GImage_Create.js":"ed2f46cfb944c53b9748d57bd8481fea","GButton.js":"00f4640559587f3c523855146abe359c","memorybinding.json":"1ffe30998176bb13298911f6893075db","GameRunner.js":"4ec5c05e34dd229518088607e762bdc4","KTrigger.js":"359598582677ba151569c2da9b85f2c8","GMap.js":"6f664b3e3d5cef53b028ecbddde836b6","GameParams.js":"51e7eece2f2f5c7486f3c24306bd629e","Trial.js":"6171e3fa7940715f1573d01ebaf67d2f"}|{"":"-1","membinding.png":"e5c71f62b0b1d9ed49a6124df8a2a9d5"}|.
Color Shapes|Color Shapes|script|05f00a3a4d555692bb54fe4faaa281dd|9999|51c6a6db-248b-4921-bb8f-cf06fbe6af8a|3|4245cd88-68ad-4f49-957f-8593e00d49d8|2020/11/30 11:45:02|2c529047-935b-4892-ba30-c966722a3675|60.0627521290901|59.83863738233976|android|912.0MB|47.653599025487104|{"delaytime":"900","difftrialcount":"4","fixationtime":"500","responsedisp3count":"8","shapecount":"3","studytime":"2000","swap3count":"4","trialnum":"8","gridh":"3","gridw":"3","script":"memorybinding","type":"script","defval_survey_pack_id":"demo_survey","trialtype":"1","swapcount":"3","dispcount":"3"}|1|1|7|1|0|true|memorybinding|1|3|3|3|656|1|2|5|0|1|3|1|2|0|5|3|1|1|2|1|1|0|3|3|0|0|5|5|2|2|{"GameEngine.js":"61fa031fc10c8d55d04ff952c4d14db9","Tools.js":"ca63e8aeadad3fb000f03128ed0b5770","GList.js":"532d667d75f0085221f727470ca83389","KTime.js":"875c9b3225ef5e83b5e6e0ba905a448b","ErrorMan.js":"539cd2c30aa2b5609ee615a040cdbca6","GImage.js":"8a31b421f899c53c1d76057f7aa35dc3","GColor.js":"3f152bebb4545bcef5d255a594dc52e2","memorybinding.js":"ca248b0f5cd99555cbf09db17553ab8b","Entity.js":"7c10dc4ffd31c005841e1db7e3377467","KPosition.js":"a07b31f37c9cb1fa49a6b47bff376522","KAlpha.js":"fdac535470841697614a578b451f6d35","Sprite.js":"cd811fc36d62ac5077fddf578c118bcf","GBox.js":"9c44756dbeb2733973b0bc3ec7784187","memorybinding_shape.js":"dd5e4be10d24c195176a29ea01f5a379","memorybinding_generatetrialset.js":"491124d092c3af76cc4ed38e85623581","GImage_Create.js":"ed2f46cfb944c53b9748d57bd8481fea","GButton.js":"00f4640559587f3c523855146abe359c","memorybinding.json":"1ffe30998176bb13298911f6893075db","GameRunner.js":"4ec5c05e34dd229518088607e762bdc4","KTrigger.js":"359598582677ba151569c2da9b85f2c8","GMap.js":"6f664b3e3d5cef53b028ecbddde836b6","GameParams.js":"51e7eece2f2f5c7486f3c24306bd629e","Trial.js":"6171e3fa7940715f1573d01ebaf67d2f"}|{"":"-1","membinding.png":"e5c71f62b0b1d9ed49a6124df8a2a9d5"}|.
Color Shapes|Color Shapes|script|05f00a3a4d555692bb54fe4faaa281dd|9999|51c6a6db-248b-4921-bb8f-cf06fbe6af8a|3|4245cd88-68ad-4f49-957f-8593e00d49d8|2020/11/30 11:45:06|da1f1f82-48c3-475d-83ca-ed8235031063|59.91310313286073|59.89940557841793|android|908.0MB|47.47648906019494|{"delaytime":"900","difftrialcount":"4","fixationtime":"500","responsedisp3count":"8","shapecount":"3","studytime":"2000","swap3count":"4","trialnum":"8","gridh":"3","gridw":"3","script":"memorybinding","type":"script","defval_survey_pack_id":"demo_survey","trialtype":"0","swapcount":"0","dispcount":"3"}|1|1|8|1|0|true|memorybinding|0|3|3|0|564|1|7|4|2|2|9|1|0|0|4|2|2|0|7|4|0|2|9|1|0|1|4|2|1|0|{"GameEngine.js":"61fa031fc10c8d55d04ff952c4d14db9","Tools.js":"ca63e8aeadad3fb000f03128ed0b5770","GList.js":"532d667d75f0085221f727470ca83389","KTime.js":"875c9b3225ef5e83b5e6e0ba905a448b","ErrorMan.js":"539cd2c30aa2b5609ee615a040cdbca6","GImage.js":"8a31b421f899c53c1d76057f7aa35dc3","GColor.js":"3f152bebb4545bcef5d255a594dc52e2","memorybinding.js":"ca248b0f5cd99555cbf09db17553ab8b","Entity.js":"7c10dc4ffd31c005841e1db7e3377467","KPosition.js":"a07b31f37c9cb1fa49a6b47bff376522","KAlpha.js":"fdac535470841697614a578b451f6d35","Sprite.js":"cd811fc36d62ac5077fddf578c118bcf","GBox.js":"9c44756dbeb2733973b0bc3ec7784187","memorybinding_shape.js":"dd5e4be10d24c195176a29ea01f5a379","memorybinding_generatetrialset.js":"491124d092c3af76cc4ed38e85623581","GImage_Create.js":"ed2f46cfb944c53b9748d57bd8481fea","GButton.js":"00f4640559587f3c523855146abe359c","memorybinding.json":"1ffe30998176bb13298911f6893075db","GameRunner.js":"4ec5c05e34dd229518088607e762bdc4","KTrigger.js":"359598582677ba151569c2da9b85f2c8","GMap.js":"6f664b3e3d5cef53b028ecbddde836b6","GameParams.js":"51e7eece2f2f5c7486f3c24306bd629e","Trial.js":"6171e3fa7940715f1573d01ebaf67d2f"}|{"":"-1","membinding.png":"e5c71f62b0b1d9ed49a6124df8a2a9d5"}|.
Color Shapes|Color Shapes|script|05f00a3a4d555692bb54fe4faaa281dd|9999|d933ca0e-2131-4f58-9076-f3903d54d759|5|38d12ef7-4b1a-4e47-af24-6bc11c3d6f7e|2020/11/30 14:55:25|25bac07f-edc9-4476-ac5f-f1249b68c48c|59.880239520958085|58.914429206103925|android|1095.0MB|57.21876141369664|{"delaytime":"900","difftrialcount":"4","fixationtime":"500","responsedisp3count":"8","shapecount":"3","studytime":"2000","swap3count":"4","trialnum":"8","gridh":"3","gridw":"3","script":"memorybinding","type":"script","defval_survey_pack_id":"demo_survey","trialtype":"0","swapcount":"0","dispcount":"3"}|1|1|1|1|0|true|memorybinding|0|3|3|0|1344|1|7|2|1|0|9|5|2|1|8|1|2|2|7|2|0|2|9|5|2|0|8|1|0|0|{"GameEngine.js":"61fa031fc10c8d55d04ff952c4d14db9","Tools.js":"ca63e8aeadad3fb000f03128ed0b5770","GList.js":"532d667d75f0085221f727470ca83389","KTime.js":"875c9b3225ef5e83b5e6e0ba905a448b","ErrorMan.js":"539cd2c30aa2b5609ee615a040cdbca6","GImage.js":"8a31b421f899c53c1d76057f7aa35dc3","GColor.js":"3f152bebb4545bcef5d255a594dc52e2","memorybinding.js":"ca248b0f5cd99555cbf09db17553ab8b","Entity.js":"7c10dc4ffd31c005841e1db7e3377467","KPosition.js":"a07b31f37c9cb1fa49a6b47bff376522","KAlpha.js":"fdac535470841697614a578b451f6d35","Sprite.js":"cd811fc36d62ac5077fddf578c118bcf","GBox.js":"9c44756dbeb2733973b0bc3ec7784187","memorybinding_shape.js":"dd5e4be10d24c195176a29ea01f5a379","memorybinding_generatetrialset.js":"491124d092c3af76cc4ed38e85623581","GImage_Create.js":"ed2f46cfb944c53b9748d57bd8481fea","GButton.js":"00f4640559587f3c523855146abe359c","memorybinding.json":"1ffe30998176bb13298911f6893075db","GameRunner.js":"4ec5c05e34dd229518088607e762bdc4","KTrigger.js":"359598582677ba151569c2da9b85f2c8","GMap.js":"6f664b3e3d5cef53b028ecbddde836b6","GameParams.js":"51e7eece2f2f5c7486f3c24306bd629e","Trial.js":"6171e3fa7940715f1573d01ebaf67d2f"}|{"":"-1","membinding.png":"e5c71f62b0b1d9ed49a6124df8a2a9d5"}|.
Color Shapes|Color Shapes|script|05f00a3a4d555692bb54fe4faaa281dd|9999|d933ca0e-2131-4f58-9076-f3903d54d759|5|38d12ef7-4b1a-4e47-af24-6bc11c3d6f7e|2020/11/30 14:55:30|536d37e8-c343-4edb-8cbf-b6a69b873467|59.803697785893625|59.118922620406295|android|1092.0MB|57.073074184182126|{"delaytime":"900","difftrialcount":"4","fixationtime":"500","responsedisp3count":"8","shapecount":"3","studytime":"2000","swap3count":"4","trialnum":"8","gridh":"3","gridw":"3","script":"memorybinding","type":"script","defval_survey_pack_id":"demo_survey","trialtype":"0","swapcount":"0","dispcount":"3"}|1|1|2|1|0|true|memorybinding|0|3|3|0|587|0|6|6|0|1|5|2|2|0|2|5|0|2|6|6|0|0|5|2|1|1|2|5|2|2|{"GameEngine.js":"61fa031fc10c8d55d04ff952c4d14db9","Tools.js":"ca63e8aeadad3fb000f03128ed0b5770","GList.js":"532d667d75f0085221f727470ca83389","KTime.js":"875c9b3225ef5e83b5e6e0ba905a448b","ErrorMan.js":"539cd2c30aa2b5609ee615a040cdbca6","GImage.js":"8a31b421f899c53c1d76057f7aa35dc3","GColor.js":"3f152bebb4545bcef5d255a594dc52e2","memorybinding.js":"ca248b0f5cd99555cbf09db17553ab8b","Entity.js":"7c10dc4ffd31c005841e1db7e3377467","KPosition.js":"a07b31f37c9cb1fa49a6b47bff376522","KAlpha.js":"fdac535470841697614a578b451f6d35","Sprite.js":"cd811fc36d62ac5077fddf578c118bcf","GBox.js":"9c44756dbeb2733973b0bc3ec7784187","memorybinding_shape.js":"dd5e4be10d24c195176a29ea01f5a379","memorybinding_generatetrialset.js":"491124d092c3af76cc4ed38e85623581","GImage_Create.js":"ed2f46cfb944c53b9748d57bd8481fea","GButton.js":"00f4640559587f3c523855146abe359c","memorybinding.json":"1ffe30998176bb13298911f6893075db","GameRunner.js":"4ec5c05e34dd229518088607e762bdc4","KTrigger.js":"359598582677ba151569c2da9b85f2c8","GMap.js":"6f664b3e3d5cef53b028ecbddde836b6","GameParams.js":"51e7eece2f2f5c7486f3c24306bd629e","Trial.js":"6171e3fa7940715f1573d01ebaf67d2f"}|{"":"-1","membinding.png":"e5c71f62b0b1d9ed49a6124df8a2a9d5"}|.
Color Shapes|Color Shapes|script|05f00a3a4d555692bb54fe4faaa281dd|9999|d933ca0e-2131-4f58-9076-f3903d54d759|5|38d12ef7-4b1a-4e47-af24-6bc11c3d6f7e|2020/11/30 14:55:34|28c63a32-ac7f-4b86-94dc-31d54f352e31|59.97144217039505|59.2574964302713|android|1089.0MB|56.9337123105709|{"delaytime":"900","difftrialcount":"4","fixationtime":"500","responsedisp3count":"8","shapecount":"3","studytime":"2000","swap3count":"4","trialnum":"8","gridh":"3","gridw":"3","script":"memorybinding","type":"script","defval_survey_pack_id":"demo_survey","trialtype":"0","swapcount":"0","dispcount":"3"}|1|1|3|1|0|true|memorybinding|0|3|3|0|398|1|7|6|1|2|6|5|2|1|2|4|0|0|7|6|0|2|6|5|0|1|2|4|2|0|{"GameEngine.js":"61fa031fc10c8d55d04ff952c4d14db9","Tools.js":"ca63e8aeadad3fb000f03128ed0b5770","GList.js":"532d667d75f0085221f727470ca83389","KTime.js":"875c9b3225ef5e83b5e6e0ba905a448b","ErrorMan.js":"539cd2c30aa2b5609ee615a040cdbca6","GImage.js":"8a31b421f899c53c1d76057f7aa35dc3","GColor.js":"3f152bebb4545bcef5d255a594dc52e2","memorybinding.js":"ca248b0f5cd99555cbf09db17553ab8b","Entity.js":"7c10dc4ffd31c005841e1db7e3377467","KPosition.js":"a07b31f37c9cb1fa49a6b47bff376522","KAlpha.js":"fdac535470841697614a578b451f6d35","Sprite.js":"cd811fc36d62ac5077fddf578c118bcf","GBox.js":"9c44756dbeb2733973b0bc3ec7784187","memorybinding_shape.js":"dd5e4be10d24c195176a29ea01f5a379","memorybinding_generatetrialset.js":"491124d092c3af76cc4ed38e85623581","GImage_Create.js":"ed2f46cfb944c53b9748d57bd8481fea","GButton.js":"00f4640559587f3c523855146abe359c","memorybinding.json":"1ffe30998176bb13298911f6893075db","GameRunner.js":"4ec5c05e34dd229518088607e762bdc4","KTrigger.js":"359598582677ba151569c2da9b85f2c8","GMap.js":"6f664b3e3d5cef53b028ecbddde836b6","GameParams.js":"51e7eece2f2f5c7486f3c24306bd629e","Trial.js":"6171e3fa7940715f1573d01ebaf67d2f"}|{"":"-1","membinding.png":"e5c71f62b0b1d9ed49a6124df8a2a9d5"}|.
Color Shapes|Color Shapes|script|05f00a3a4d555692bb54fe4faaa281dd|9999|d933ca0e-2131-4f58-9076-f3903d54d759|5|38d12ef7-4b1a-4e47-af24-6bc11c3d6f7e|2020/11/30 14:55:38|04f0d2de-74df-49c8-b2d9-c669887ae087|59.8732096736323|59.16881897158957|android|1087.0MB|56.79455448069848|{"delaytime":"900","difftrialcount":"4","fixationtime":"500","responsedisp3count":"8","shapecount":"3","studytime":"2000","swap3count":"4","trialnum":"8","gridh":"3","gridw":"3","script":"memorybinding","type":"script","defval_survey_pack_id":"demo_survey","trialtype":"1","swapcount":"3","dispcount":"3"}|1|1|4|1|0|true|memorybinding|1|3|3|3|458|0|4|5|0|2|8|4|1|1|6|1|2|1|4|4|1|2|8|1|0|1|6|5|1|0|{"GameEngine.js":"61fa031fc10c8d55d04ff952c4d14db9","Tools.js":"ca63e8aeadad3fb000f03128ed0b5770","GList.js":"532d667d75f0085221f727470ca83389","KTime.js":"875c9b3225ef5e83b5e6e0ba905a448b","ErrorMan.js":"539cd2c30aa2b5609ee615a040cdbca6","GImage.js":"8a31b421f899c53c1d76057f7aa35dc3","GColor.js":"3f152bebb4545bcef5d255a594dc52e2","memorybinding.js":"ca248b0f5cd99555cbf09db17553ab8b","Entity.js":"7c10dc4ffd31c005841e1db7e3377467","KPosition.js":"a07b31f37c9cb1fa49a6b47bff376522","KAlpha.js":"fdac535470841697614a578b451f6d35","Sprite.js":"cd811fc36d62ac5077fddf578c118bcf","GBox.js":"9c44756dbeb2733973b0bc3ec7784187","memorybinding_shape.js":"dd5e4be10d24c195176a29ea01f5a379","memorybinding_generatetrialset.js":"491124d092c3af76cc4ed38e85623581","GImage_Create.js":"ed2f46cfb944c53b9748d57bd8481fea","GButton.js":"00f4640559587f3c523855146abe359c","memorybinding.json":"1ffe30998176bb13298911f6893075db","GameRunner.js":"4ec5c05e34dd229518088607e762bdc4","KTrigger.js":"359598582677ba151569c2da9b85f2c8","GMap.js":"6f664b3e3d5cef53b028ecbddde836b6","GameParams.js":"51e7eece2f2f5c7486f3c24306bd629e","Trial.js":"6171e3fa7940715f1573d01ebaf67d2f"}|{"":"-1","membinding.png":"e5c71f62b0b1d9ed49a6124df8a2a9d5"}|.
Color Shapes|Color Shapes|script|05f00a3a4d555692bb54fe4faaa281dd|9999|d933ca0e-2131-4f58-9076-f3903d54d759|5|38d12ef7-4b1a-4e47-af24-6bc11c3d6f7e|2020/11/30 14:55:42|5ccf9e95-940e-4bfe-9e76-324553079513|59.930313588850176|59.00116144018583|android|1085.0MB|56.69457304867872|{"delaytime":"900","difftrialcount":"4","fixationtime":"500","responsedisp3count":"8","shapecount":"3","studytime":"2000","swap3count":"4","trialnum":"8","gridh":"3","gridw":"3","script":"memorybinding","type":"script","defval_survey_pack_id":"demo_survey","trialtype":"1","swapcount":"3","dispcount":"3"}|1|1|5|1|0|true|memorybinding|1|3|3|3|502|1|7|6|0|1|4|2|2|2|3|1|1|2|7|2|0|0|4|1|0|2|3|6|2|0|{"GameEngine.js":"61fa031fc10c8d55d04ff952c4d14db9","Tools.js":"ca63e8aeadad3fb000f03128ed0b5770","GList.js":"532d667d75f0085221f727470ca83389","KTime.js":"875c9b3225ef5e83b5e6e0ba905a448b","ErrorMan.js":"539cd2c30aa2b5609ee615a040cdbca6","GImage.js":"8a31b421f899c53c1d76057f7aa35dc3","GColor.js":"3f152bebb4545bcef5d255a594dc52e2","memorybinding.js":"ca248b0f5cd99555cbf09db17553ab8b","Entity.js":"7c10dc4ffd31c005841e1db7e3377467","KPosition.js":"a07b31f37c9cb1fa49a6b47bff376522","KAlpha.js":"fdac535470841697614a578b451f6d35","Sprite.js":"cd811fc36d62ac5077fddf578c118bcf","GBox.js":"9c44756dbeb2733973b0bc3ec7784187","memorybinding_shape.js":"dd5e4be10d24c195176a29ea01f5a379","memorybinding_generatetrialset.js":"491124d092c3af76cc4ed38e85623581","GImage_Create.js":"ed2f46cfb944c53b9748d57bd8481fea","GButton.js":"00f4640559587f3c523855146abe359c","memorybinding.json":"1ffe30998176bb13298911f6893075db","GameRunner.js":"4ec5c05e34dd229518088607e762bdc4","KTrigger.js":"359598582677ba151569c2da9b85f2c8","GMap.js":"6f664b3e3d5cef53b028ecbddde836b6","GameParams.js":"51e7eece2f2f5c7486f3c24306bd629e","Trial.js":"6171e3fa7940715f1573d01ebaf67d2f"}|{"":"-1","membinding.png":"e5c71f62b0b1d9ed49a6124df8a2a9d5"}|.
Color Shapes|Color Shapes|script|05f00a3a4d555692bb54fe4faaa281dd|9999|d933ca0e-2131-4f58-9076-f3903d54d759|5|38d12ef7-4b1a-4e47-af24-6bc11c3d6f7e|2020/11/30 14:55:47|061725b5-e611-4d3b-a6b2-600d3bbf0d93|60.013796275005745|59.323982524718325|android|1086.0MB|56.72762813436688|{"delaytime":"900","difftrialcount":"4","fixationtime":"500","responsedisp3count":"8","shapecount":"3","studytime":"2000","swap3count":"4","trialnum":"8","gridh":"3","gridw":"3","script":"memorybinding","type":"script","defval_survey_pack_id":"demo_survey","trialtype":"0","swapcount":"0","dispcount":"3"}|1|1|6|1|0|true|memorybinding|0|3|3|0|549|0|8|2|2|0|4|1|2|2|6|6|1|0|8|2|0|0|4|1|2|1|6|6|1|2|{"GameEngine.js":"61fa031fc10c8d55d04ff952c4d14db9","Tools.js":"ca63e8aeadad3fb000f03128ed0b5770","GList.js":"532d667d75f0085221f727470ca83389","KTime.js":"875c9b3225ef5e83b5e6e0ba905a448b","ErrorMan.js":"539cd2c30aa2b5609ee615a040cdbca6","GImage.js":"8a31b421f899c53c1d76057f7aa35dc3","GColor.js":"3f152bebb4545bcef5d255a594dc52e2","memorybinding.js":"ca248b0f5cd99555cbf09db17553ab8b","Entity.js":"7c10dc4ffd31c005841e1db7e3377467","KPosition.js":"a07b31f37c9cb1fa49a6b47bff376522","KAlpha.js":"fdac535470841697614a578b451f6d35","Sprite.js":"cd811fc36d62ac5077fddf578c118bcf","GBox.js":"9c44756dbeb2733973b0bc3ec7784187","memorybinding_shape.js":"dd5e4be10d24c195176a29ea01f5a379","memorybinding_generatetrialset.js":"491124d092c3af76cc4ed38e85623581","GImage_Create.js":"ed2f46cfb944c53b9748d57bd8481fea","GButton.js":"00f4640559587f3c523855146abe359c","memorybinding.json":"1ffe30998176bb13298911f6893075db","GameRunner.js":"4ec5c05e34dd229518088607e762bdc4","KTrigger.js":"359598582677ba151569c2da9b85f2c8","GMap.js":"6f664b3e3d5cef53b028ecbddde836b6","GameParams.js":"51e7eece2f2f5c7486f3c24306bd629e","Trial.js":"6171e3fa7940715f1573d01ebaf67d2f"}|{"":"-1","membinding.png":"e5c71f62b0b1d9ed49a6124df8a2a9d5"}|.
Color Shapes|Color Shapes|script|05f00a3a4d555692bb54fe4faaa281dd|9999|d933ca0e-2131-4f58-9076-f3903d54d759|5|38d12ef7-4b1a-4e47-af24-6bc11c3d6f7e|2020/11/30 14:55:51|b7bd6834-dae2-47ff-ac4d-bab8604b67dd|59.86748698532892|59.15759583530525|android|1093.0MB|57.11286271325121|{"delaytime":"900","difftrialcount":"4","fixationtime":"500","responsedisp3count":"8","shapecount":"3","studytime":"2000","swap3count":"4","trialnum":"8","gridh":"3","gridw":"3","script":"memorybinding","type":"script","defval_survey_pack_id":"demo_survey","trialtype":"1","swapcount":"3","dispcount":"3"}|1|1|7|1|0|true|memorybinding|1|3|3|3|423|1|2|4|2|2|3|6|1|1|7|3|0|0|2|6|2|1|3|3|2|0|7|4|0|1|{"GameEngine.js":"61fa031fc10c8d55d04ff952c4d14db9","Tools.js":"ca63e8aeadad3fb000f03128ed0b5770","GList.js":"532d667d75f0085221f727470ca83389","KTime.js":"875c9b3225ef5e83b5e6e0ba905a448b","ErrorMan.js":"539cd2c30aa2b5609ee615a040cdbca6","GImage.js":"8a31b421f899c53c1d76057f7aa35dc3","GColor.js":"3f152bebb4545bcef5d255a594dc52e2","memorybinding.js":"ca248b0f5cd99555cbf09db17553ab8b","Entity.js":"7c10dc4ffd31c005841e1db7e3377467","KPosition.js":"a07b31f37c9cb1fa49a6b47bff376522","KAlpha.js":"fdac535470841697614a578b451f6d35","Sprite.js":"cd811fc36d62ac5077fddf578c118bcf","GBox.js":"9c44756dbeb2733973b0bc3ec7784187","memorybinding_shape.js":"dd5e4be10d24c195176a29ea01f5a379","memorybinding_generatetrialset.js":"491124d092c3af76cc4ed38e85623581","GImage_Create.js":"ed2f46cfb944c53b9748d57bd8481fea","GButton.js":"00f4640559587f3c523855146abe359c","memorybinding.json":"1ffe30998176bb13298911f6893075db","GameRunner.js":"4ec5c05e34dd229518088607e762bdc4","KTrigger.js":"359598582677ba151569c2da9b85f2c8","GMap.js":"6f664b3e3d5cef53b028ecbddde836b6","GameParams.js":"51e7eece2f2f5c7486f3c24306bd629e","Trial.js":"6171e3fa7940715f1573d01ebaf67d2f"}|{"":"-1","membinding.png":"e5c71f62b0b1d9ed49a6124df8a2a9d5"}|.
Color Shapes|Color Shapes|script|05f00a3a4d555692bb54fe4faaa281dd|9999|d933ca0e-2131-4f58-9076-f3903d54d759|5|38d12ef7-4b1a-4e47-af24-6bc11c3d6f7e|2020/11/30 14:55:56|2a59dc40-521d-4759-816e-e0257bd539fe|59.9690196946227|59.08386811241425|android|1090.0MB|56.961870346527476|{"delaytime":"900","difftrialcount":"4","fixationtime":"500","responsedisp3count":"8","shapecount":"3","studytime":"2000","swap3count":"4","trialnum":"8","gridh":"3","gridw":"3","script":"memorybinding","type":"script","defval_survey_pack_id":"demo_survey","trialtype":"1","swapcount":"3","dispcount":"3"}|1|1|8|1|0|true|memorybinding|1|3|3|3|724|1|8|3|2|0|2|5|1|0|9|2|2|1|8|5|1|1|2|2|0|2|9|3|0|1|{"GameEngine.js":"61fa031fc10c8d55d04ff952c4d14db9","Tools.js":"ca63e8aeadad3fb000f03128ed0b5770","GList.js":"532d667d75f0085221f727470ca83389","KTime.js":"875c9b3225ef5e83b5e6e0ba905a448b","ErrorMan.js":"539cd2c30aa2b5609ee615a040cdbca6","GImage.js":"8a31b421f899c53c1d76057f7aa35dc3","GColor.js":"3f152bebb4545bcef5d255a594dc52e2","memorybinding.js":"ca248b0f5cd99555cbf09db17553ab8b","Entity.js":"7c10dc4ffd31c005841e1db7e3377467","KPosition.js":"a07b31f37c9cb1fa49a6b47bff376522","KAlpha.js":"fdac535470841697614a578b451f6d35","Sprite.js":"cd811fc36d62ac5077fddf578c118bcf","GBox.js":"9c44756dbeb2733973b0bc3ec7784187","memorybinding_shape.js":"dd5e4be10d24c195176a29ea01f5a379","memorybinding_generatetrialset.js":"491124d092c3af76cc4ed38e85623581","GImage_Create.js":"ed2f46cfb944c53b9748d57bd8481fea","GButton.js":"00f4640559587f3c523855146abe359c","memorybinding.json":"1ffe30998176bb13298911f6893075db","GameRunner.js":"4ec5c05e34dd229518088607e762bdc4","KTrigger.js":"359598582677ba151569c2da9b85f2c8","GMap.js":"6f664b3e3d5cef53b028ecbddde836b6","GameParams.js":"51e7eece2f2f5c7486f3c24306bd629e","Trial.js":"6171e3fa7940715f1573d01ebaf67d2f"}|{"":"-1","membinding.png":"e5c71f62b0b1d9ed49a6124df8a2a9d5"}|.
Color Shapes|Color Shapes|script|05f00a3a4d555692bb54fe4faaa281dd|9999|c25ffca3-7cab-4766-8f58-681366c7b000|9|7e819518-f366-403c-af28-03d35d74d52f|2020/12/03 15:55:51|8364837c-f475-4a14-9d0c-776078f8b203|59.88857938718663|60.08754476721051|android|1935.0MB|35.35130175053284|{"delaytime":"900","difftrialcount":"4","fixationtime":"500","responsedisp3count":"8","shapecount":"3","studytime":"2000","swap3count":"4","trialnum":"8","gridh":"3","gridw":"3","script":"memorybinding","type":"script","defval_survey_pack_id":"demo_survey","trialtype":"1","swapcount":"3","dispcount":"3"}|1|1|1|1|0|true|memorybinding|1|3|3|3|1232|1|6|5|1|1|5|4|0|0|9|1|2|1|6|4|1|0|5|1|1|2|9|5|2|0|{"GameEngine.js":"61fa031fc10c8d55d04ff952c4d14db9","Tools.js":"ca63e8aeadad3fb000f03128ed0b5770","GList.js":"532d667d75f0085221f727470ca83389","KTime.js":"875c9b3225ef5e83b5e6e0ba905a448b","ErrorMan.js":"539cd2c30aa2b5609ee615a040cdbca6","GImage.js":"8a31b421f899c53c1d76057f7aa35dc3","GColor.js":"3f152bebb4545bcef5d255a594dc52e2","memorybinding.js":"ca248b0f5cd99555cbf09db17553ab8b","Entity.js":"7c10dc4ffd31c005841e1db7e3377467","KPosition.js":"a07b31f37c9cb1fa49a6b47bff376522","KAlpha.js":"fdac535470841697614a578b451f6d35","Sprite.js":"cd811fc36d62ac5077fddf578c118bcf","GBox.js":"9c44756dbeb2733973b0bc3ec7784187","memorybinding_shape.js":"dd5e4be10d24c195176a29ea01f5a379","memorybinding_generatetrialset.js":"491124d092c3af76cc4ed38e85623581","GImage_Create.js":"ed2f46cfb944c53b9748d57bd8481fea","GButton.js":"00f4640559587f3c523855146abe359c","memorybinding.json":"1ffe30998176bb13298911f6893075db","GameRunner.js":"4ec5c05e34dd229518088607e762bdc4","KTrigger.js":"359598582677ba151569c2da9b85f2c8","GMap.js":"6f664b3e3d5cef53b028ecbddde836b6","GameParams.js":"51e7eece2f2f5c7486f3c24306bd629e","Trial.js":"6171e3fa7940715f1573d01ebaf67d2f"}|{"":"-1","membinding.png":"e5c71f62b0b1d9ed49a6124df8a2a9d5"}|.
Color Shapes|Color Shapes|script|05f00a3a4d555692bb54fe4faaa281dd|9999|c25ffca3-7cab-4766-8f58-681366c7b000|9|7e819518-f366-403c-af28-03d35d74d52f|2020/12/03 15:55:56|f92bd216-c536-4f34-b169-18255006fd9e|59.76806422836753|59.99107939339875|android|1931.0MB|35.276593892507734|{"delaytime":"900","difftrialcount":"4","fixationtime":"500","responsedisp3count":"8","shapecount":"3","studytime":"2000","swap3count":"4","trialnum":"8","gridh":"3","gridw":"3","script":"memorybinding","type":"script","defval_survey_pack_id":"demo_survey","trialtype":"0","swapcount":"0","dispcount":"3"}|1|1|2|1|0|true|memorybinding|0|3|3|0|674|1|6|1|0|2|4|5|2|2|2|6|1|2|6|1|0|0|4|5|1|0|2|6|2|0|{"GameEngine.js":"61fa031fc10c8d55d04ff952c4d14db9","Tools.js":"ca63e8aeadad3fb000f03128ed0b5770","GList.js":"532d667d75f0085221f727470ca83389","KTime.js":"875c9b3225ef5e83b5e6e0ba905a448b","ErrorMan.js":"539cd2c30aa2b5609ee615a040cdbca6","GImage.js":"8a31b421f899c53c1d76057f7aa35dc3","GColor.js":"3f152bebb4545bcef5d255a594dc52e2","memorybinding.js":"ca248b0f5cd99555cbf09db17553ab8b","Entity.js":"7c10dc4ffd31c005841e1db7e3377467","KPosition.js":"a07b31f37c9cb1fa49a6b47bff376522","KAlpha.js":"fdac535470841697614a578b451f6d35","Sprite.js":"cd811fc36d62ac5077fddf578c118bcf","GBox.js":"9c44756dbeb2733973b0bc3ec7784187","memorybinding_shape.js":"dd5e4be10d24c195176a29ea01f5a379","memorybinding_generatetrialset.js":"491124d092c3af76cc4ed38e85623581","GImage_Create.js":"ed2f46cfb944c53b9748d57bd8481fea","GButton.js":"00f4640559587f3c523855146abe359c","memorybinding.json":"1ffe30998176bb13298911f6893075db","GameRunner.js":"4ec5c05e34dd229518088607e762bdc4","KTrigger.js":"359598582677ba151569c2da9b85f2c8","GMap.js":"6f664b3e3d5cef53b028ecbddde836b6","GameParams.js":"51e7eece2f2f5c7486f3c24306bd629e","Trial.js":"6171e3fa7940715f1573d01ebaf67d2f"}|{"":"-1","membinding.png":"e5c71f62b0b1d9ed49a6124df8a2a9d5"}|.
Color Shapes|Color Shapes|script|05f00a3a4d555692bb54fe4faaa281dd|9999|c25ffca3-7cab-4766-8f58-681366c7b000|9|7e819518-f366-403c-af28-03d35d74d52f|2020/12/03 15:56:00|794a3635-6078-4e30-9d74-c8e5683a4ea2|59.78391356542617|60.024009603841534|android|1955.0MB|35.71920405805664|{"delaytime":"900","difftrialcount":"4","fixationtime":"500","responsedisp3count":"8","shapecount":"3","studytime":"2000","swap3count":"4","trialnum":"8","gridh":"3","gridw":"3","script":"memorybinding","type":"script","defval_survey_pack_id":"demo_survey","trialtype":"1","swapcount":"3","dispcount":"3"}|1|1|3|1|0|true|memorybinding|1|3|3|3|375|1|4|6|2|2|9|3|1|1|6|1|0|2|4|3|1|0|9|1|0|0|6|6|1|2|{"GameEngine.js":"61fa031fc10c8d55d04ff952c4d14db9","Tools.js":"ca63e8aeadad3fb000f03128ed0b5770","GList.js":"532d667d75f0085221f727470ca83389","KTime.js":"875c9b3225ef5e83b5e6e0ba905a448b","ErrorMan.js":"539cd2c30aa2b5609ee615a040cdbca6","GImage.js":"8a31b421f899c53c1d76057f7aa35dc3","GColor.js":"3f152bebb4545bcef5d255a594dc52e2","memorybinding.js":"ca248b0f5cd99555cbf09db17553ab8b","Entity.js":"7c10dc4ffd31c005841e1db7e3377467","KPosition.js":"a07b31f37c9cb1fa49a6b47bff376522","KAlpha.js":"fdac535470841697614a578b451f6d35","Sprite.js":"cd811fc36d62ac5077fddf578c118bcf","GBox.js":"9c44756dbeb2733973b0bc3ec7784187","memorybinding_shape.js":"dd5e4be10d24c195176a29ea01f5a379","memorybinding_generatetrialset.js":"491124d092c3af76cc4ed38e85623581","GImage_Create.js":"ed2f46cfb944c53b9748d57bd8481fea","GButton.js":"00f4640559587f3c523855146abe359c","memorybinding.json":"1ffe30998176bb13298911f6893075db","GameRunner.js":"4ec5c05e34dd229518088607e762bdc4","KTrigger.js":"359598582677ba151569c2da9b85f2c8","GMap.js":"6f664b3e3d5cef53b028ecbddde836b6","GameParams.js":"51e7eece2f2f5c7486f3c24306bd629e","Trial.js":"6171e3fa7940715f1573d01ebaf67d2f"}|{"":"-1","membinding.png":"e5c71f62b0b1d9ed49a6124df8a2a9d5"}|.
Color Shapes|Color Shapes|script|05f00a3a4d555692bb54fe4faaa281dd|9999|c25ffca3-7cab-4766-8f58-681366c7b000|9|7e819518-f366-403c-af28-03d35d74d52f|2020/12/03 15:56:04|b16c36ce-ad38-4482-bb99-265b2e4e06e3|59.85332387035722|60.08989827300686|android|1950.0MB|35.621662852784134|{"delaytime":"900","difftrialcount":"4","fixationtime":"500","responsedisp3count":"8","shapecount":"3","studytime":"2000","swap3count":"4","trialnum":"8","gridh":"3","gridw":"3","script":"memorybinding","type":"script","defval_survey_pack_id":"demo_survey","trialtype":"0","swapcount":"0","dispcount":"3"}|1|1|4|1|0|true|memorybinding|0|3|3|0|435|1|4|6|1|1|9|4|1|2|6|3|0|2|4|6|0|0|9|4|2|0|6|3|2|1|{"GameEngine.js":"61fa031fc10c8d55d04ff952c4d14db9","Tools.js":"ca63e8aeadad3fb000f03128ed0b5770","GList.js":"532d667d75f0085221f727470ca83389","KTime.js":"875c9b3225ef5e83b5e6e0ba905a448b","ErrorMan.js":"539cd2c30aa2b5609ee615a040cdbca6","GImage.js":"8a31b421f899c53c1d76057f7aa35dc3","GColor.js":"3f152bebb4545bcef5d255a594dc52e2","memorybinding.js":"ca248b0f5cd99555cbf09db17553ab8b","Entity.js":"7c10dc4ffd31c005841e1db7e3377467","KPosition.js":"a07b31f37c9cb1fa49a6b47bff376522","KAlpha.js":"fdac535470841697614a578b451f6d35","Sprite.js":"cd811fc36d62ac5077fddf578c118bcf","GBox.js":"9c44756dbeb2733973b0bc3ec7784187","memorybinding_shape.js":"dd5e4be10d24c195176a29ea01f5a379","memorybinding_generatetrialset.js":"491124d092c3af76cc4ed38e85623581","GImage_Create.js":"ed2f46cfb944c53b9748d57bd8481fea","GButton.js":"00f4640559587f3c523855146abe359c","memorybinding.json":"1ffe30998176bb13298911f6893075db","GameRunner.js":"4ec5c05e34dd229518088607e762bdc4","KTrigger.js":"359598582677ba151569c2da9b85f2c8","GMap.js":"6f664b3e3d5cef53b028ecbddde836b6","GameParams.js":"51e7eece2f2f5c7486f3c24306bd629e","Trial.js":"6171e3fa7940715f1573d01ebaf67d2f"}|{"":"-1","membinding.png":"e5c71f62b0b1d9ed49a6124df8a2a9d5"}|.
Color Shapes|Color Shapes|script|05f00a3a4d555692bb54fe4faaa281dd|9999|c25ffca3-7cab-4766-8f58-681366c7b000|9|7e819518-f366-403c-af28-03d35d74d52f|2020/12/03 15:56:09|cc004a33-897f-42cf-aaa3-94feb7724156|59.98339559983396|59.97094832952895|android|1945.0MB|35.53346904904103|{"delaytime":"900","difftrialcount":"4","fixationtime":"500","responsedisp3count":"8","shapecount":"3","studytime":"2000","swap3count":"4","trialnum":"8","gridh":"3","gridw":"3","script":"memorybinding","type":"script","defval_survey_pack_id":"demo_survey","trialtype":"0","swapcount":"0","dispcount":"3"}|1|1|5|1|0|true|memorybinding|0|3|3|0|1005|1|4|6|0|1|8|1|2|0|5|3|2|1|4|6|1|0|8|1|1|1|5|3|0|2|{"GameEngine.js":"61fa031fc10c8d55d04ff952c4d14db9","Tools.js":"ca63e8aeadad3fb000f03128ed0b5770","GList.js":"532d667d75f0085221f727470ca83389","KTime.js":"875c9b3225ef5e83b5e6e0ba905a448b","ErrorMan.js":"539cd2c30aa2b5609ee615a040cdbca6","GImage.js":"8a31b421f899c53c1d76057f7aa35dc3","GColor.js":"3f152bebb4545bcef5d255a594dc52e2","memorybinding.js":"ca248b0f5cd99555cbf09db17553ab8b","Entity.js":"7c10dc4ffd31c005841e1db7e3377467","KPosition.js":"a07b31f37c9cb1fa49a6b47bff376522","KAlpha.js":"fdac535470841697614a578b451f6d35","Sprite.js":"cd811fc36d62ac5077fddf578c118bcf","GBox.js":"9c44756dbeb2733973b0bc3ec7784187","memorybinding_shape.js":"dd5e4be10d24c195176a29ea01f5a379","memorybinding_generatetrialset.js":"491124d092c3af76cc4ed38e85623581","GImage_Create.js":"ed2f46cfb944c53b9748d57bd8481fea","GButton.js":"00f4640559587f3c523855146abe359c","memorybinding.json":"1ffe30998176bb13298911f6893075db","GameRunner.js":"4ec5c05e34dd229518088607e762bdc4","KTrigger.js":"359598582677ba151569c2da9b85f2c8","GMap.js":"6f664b3e3d5cef53b028ecbddde836b6","GameParams.js":"51e7eece2f2f5c7486f3c24306bd629e","Trial.js":"6171e3fa7940715f1573d01ebaf67d2f"}|{"":"-1","membinding.png":"e5c71f62b0b1d9ed49a6124df8a2a9d5"}|.
Color Shapes|Color Shapes|script|05f00a3a4d555692bb54fe4faaa281dd|9999|c25ffca3-7cab-4766-8f58-681366c7b000|9|7e819518-f366-403c-af28-03d35d74d52f|2020/12/03 15:56:13|1c4d83ee-e70a-4512-a1d6-9af05a32cf25|59.980806142034545|60.22072936660268|android|1960.0MB|35.81096557230715|{"delaytime":"900","difftrialcount":"4","fixationtime":"500","responsedisp3count":"8","shapecount":"3","studytime":"2000","swap3count":"4","trialnum":"8","gridh":"3","gridw":"3","script":"memorybinding","type":"script","defval_survey_pack_id":"demo_survey","trialtype":"1","swapcount":"3","dispcount":"3"}|1|1|6|1|0|true|memorybinding|1|3|3|3|381|1|6|1|0|1|8|5|1|1|5|2|1|2|6|5|0|2|8|2|2|2|5|1|1|0|{"GameEngine.js":"61fa031fc10c8d55d04ff952c4d14db9","Tools.js":"ca63e8aeadad3fb000f03128ed0b5770","GList.js":"532d667d75f0085221f727470ca83389","KTime.js":"875c9b3225ef5e83b5e6e0ba905a448b","ErrorMan.js":"539cd2c30aa2b5609ee615a040cdbca6","GImage.js":"8a31b421f899c53c1d76057f7aa35dc3","GColor.js":"3f152bebb4545bcef5d255a594dc52e2","memorybinding.js":"ca248b0f5cd99555cbf09db17553ab8b","Entity.js":"7c10dc4ffd31c005841e1db7e3377467","KPosition.js":"a07b31f37c9cb1fa49a6b47bff376522","KAlpha.js":"fdac535470841697614a578b451f6d35","Sprite.js":"cd811fc36d62ac5077fddf578c118bcf","GBox.js":"9c44756dbeb2733973b0bc3ec7784187","memorybinding_shape.js":"dd5e4be10d24c195176a29ea01f5a379","memorybinding_generatetrialset.js":"491124d092c3af76cc4ed38e85623581","GImage_Create.js":"ed2f46cfb944c53b9748d57bd8481fea","GButton.js":"00f4640559587f3c523855146abe359c","memorybinding.json":"1ffe30998176bb13298911f6893075db","GameRunner.js":"4ec5c05e34dd229518088607e762bdc4","KTrigger.js":"359598582677ba151569c2da9b85f2c8","GMap.js":"6f664b3e3d5cef53b028ecbddde836b6","GameParams.js":"51e7eece2f2f5c7486f3c24306bd629e","Trial.js":"6171e3fa7940715f1573d01ebaf67d2f"}|{"":"-1","membinding.png":"e5c71f62b0b1d9ed49a6124df8a2a9d5"}|.
Color Shapes|Color Shapes|script|05f00a3a4d555692bb54fe4faaa281dd|9999|c25ffca3-7cab-4766-8f58-681366c7b000|9|7e819518-f366-403c-af28-03d35d74d52f|2020/12/03 15:56:20|f5ad5a9c-3717-4791-8849-22636695c3c3|59.75368709137905|59.905732096700625|android|1953.0MB|35.68759414296102|{"delaytime":"900","difftrialcount":"4","fixationtime":"500","responsedisp3count":"8","shapecount":"3","studytime":"2000","swap3count":"4","trialnum":"8","gridh":"3","gridw":"3","script":"memorybinding","type":"script","defval_survey_pack_id":"demo_survey","trialtype":"1","swapcount":"3","dispcount":"3"}|1|1|7|1|0|true|memorybinding|1|3|3|3|2775|1|2|3|1|2|6|6|0|0|4|4|0|2|2|6|2|2|6|4|2|0|4|3|1|1|{"GameEngine.js":"61fa031fc10c8d55d04ff952c4d14db9","Tools.js":"ca63e8aeadad3fb000f03128ed0b5770","GList.js":"532d667d75f0085221f727470ca83389","KTime.js":"875c9b3225ef5e83b5e6e0ba905a448b","ErrorMan.js":"539cd2c30aa2b5609ee615a040cdbca6","GImage.js":"8a31b421f899c53c1d76057f7aa35dc3","GColor.js":"3f152bebb4545bcef5d255a594dc52e2","memorybinding.js":"ca248b0f5cd99555cbf09db17553ab8b","Entity.js":"7c10dc4ffd31c005841e1db7e3377467","KPosition.js":"a07b31f37c9cb1fa49a6b47bff376522","KAlpha.js":"fdac535470841697614a578b451f6d35","Sprite.js":"cd811fc36d62ac5077fddf578c118bcf","GBox.js":"9c44756dbeb2733973b0bc3ec7784187","memorybinding_shape.js":"dd5e4be10d24c195176a29ea01f5a379","memorybinding_generatetrialset.js":"491124d092c3af76cc4ed38e85623581","GImage_Create.js":"ed2f46cfb944c53b9748d57bd8481fea","GButton.js":"00f4640559587f3c523855146abe359c","memorybinding.json":"1ffe30998176bb13298911f6893075db","GameRunner.js":"4ec5c05e34dd229518088607e762bdc4","KTrigger.js":"359598582677ba151569c2da9b85f2c8","GMap.js":"6f664b3e3d5cef53b028ecbddde836b6","GameParams.js":"51e7eece2f2f5c7486f3c24306bd629e","Trial.js":"6171e3fa7940715f1573d01ebaf67d2f"}|{"":"-1","membinding.png":"e5c71f62b0b1d9ed49a6124df8a2a9d5"}|.
Color Shapes|Color Shapes|script|05f00a3a4d555692bb54fe4faaa281dd|9999|c25ffca3-7cab-4766-8f58-681366c7b000|9|7e819518-f366-403c-af28-03d35d74d52f|2020/12/03 15:56:24|bd0ec3da-3cdb-4d79-973a-7e2b2d72de2f|59.815242494226325|60.046189376443415|android|1956.0MB|35.74724626264486|{"delaytime":"900","difftrialcount":"4","fixationtime":"500","responsedisp3count":"8","shapecount":"3","studytime":"2000","swap3count":"4","trialnum":"8","gridh":"3","gridw":"3","script":"memorybinding","type":"script","defval_survey_pack_id":"demo_survey","trialtype":"0","swapcount":"0","dispcount":"3"}|1|1|8|1|0|true|memorybinding|0|3|3|0|552|1|2|1|0|0|3|3|1|1|4|2|2|2|2|1|0|2|3|3|1|2|4|2|0|1|{"GameEngine.js":"61fa031fc10c8d55d04ff952c4d14db9","Tools.js":"ca63e8aeadad3fb000f03128ed0b5770","GList.js":"532d667d75f0085221f727470ca83389","KTime.js":"875c9b3225ef5e83b5e6e0ba905a448b","ErrorMan.js":"539cd2c30aa2b5609ee615a040cdbca6","GImage.js":"8a31b421f899c53c1d76057f7aa35dc3","GColor.js":"3f152bebb4545bcef5d255a594dc52e2","memorybinding.js":"ca248b0f5cd99555cbf09db17553ab8b","Entity.js":"7c10dc4ffd31c005841e1db7e3377467","KPosition.js":"a07b31f37c9cb1fa49a6b47bff376522","KAlpha.js":"fdac535470841697614a578b451f6d35","Sprite.js":"cd811fc36d62ac5077fddf578c118bcf","GBox.js":"9c44756dbeb2733973b0bc3ec7784187","memorybinding_shape.js":"dd5e4be10d24c195176a29ea01f5a379","memorybinding_generatetrialset.js":"491124d092c3af76cc4ed38e85623581","GImage_Create.js":"ed2f46cfb944c53b9748d57bd8481fea","GButton.js":"00f4640559587f3c523855146abe359c","memorybinding.json":"1ffe30998176bb13298911f6893075db","GameRunner.js":"4ec5c05e34dd229518088607e762bdc4","KTrigger.js":"359598582677ba151569c2da9b85f2c8","GMap.js":"6f664b3e3d5cef53b028ecbddde836b6","GameParams.js":"51e7eece2f2f5c7486f3c24306bd629e","Trial.js":"6171e3fa7940715f1573d01ebaf67d2f"}|{"":"-1","membinding.png":"e5c71f62b0b1d9ed49a6124df8a2a9d5"}|.
Color Shapes|Color Shapes|script|05f00a3a4d555692bb54fe4faaa281dd|9999|cf778faf-52f7-4b46-84bd-5ae7e3e4b786|20|b40b3ab2-c892-4d66-b7d7-dae9ecb3e925|2020/12/04 08:18:14|10ac0caf-8a5e-435a-bba5-f61e417a1ccc|60.142534329914824|58.75195550147749|android|3035.0MB|40.643439543009194|{"delaytime":"900","difftrialcount":"4","fixationtime":"500","responsedisp3count":"8","shapecount":"3","studytime":"2000","swap3count":"4","trialnum":"8","gridh":"3","gridw":"3","script":"memorybinding","type":"script","defval_survey_pack_id":"demo_survey","trialtype":"1","swapcount":"3","dispcount":"3"}|1|1|1|1|0|true|memorybinding|1|3|3|3|1938|0|4|1|0|2|5|4|2|0|7|3|1|1|4|4|1|2|5|3|0|0|7|1|2|1|{"GameEngine.js":"61fa031fc10c8d55d04ff952c4d14db9","Tools.js":"ca63e8aeadad3fb000f03128ed0b5770","GList.js":"532d667d75f0085221f727470ca83389","KTime.js":"875c9b3225ef5e83b5e6e0ba905a448b","ErrorMan.js":"539cd2c30aa2b5609ee615a040cdbca6","GImage.js":"8a31b421f899c53c1d76057f7aa35dc3","GColor.js":"3f152bebb4545bcef5d255a594dc52e2","memorybinding.js":"ca248b0f5cd99555cbf09db17553ab8b","Entity.js":"7c10dc4ffd31c005841e1db7e3377467","KPosition.js":"a07b31f37c9cb1fa49a6b47bff376522","KAlpha.js":"fdac535470841697614a578b451f6d35","Sprite.js":"cd811fc36d62ac5077fddf578c118bcf","GBox.js":"9c44756dbeb2733973b0bc3ec7784187","memorybinding_shape.js":"dd5e4be10d24c195176a29ea01f5a379","memorybinding_generatetrialset.js":"491124d092c3af76cc4ed38e85623581","GImage_Create.js":"ed2f46cfb944c53b9748d57bd8481fea","GButton.js":"00f4640559587f3c523855146abe359c","memorybinding.json":"1ffe30998176bb13298911f6893075db","GameRunner.js":"4ec5c05e34dd229518088607e762bdc4","KTrigger.js":"359598582677ba151569c2da9b85f2c8","GMap.js":"6f664b3e3d5cef53b028ecbddde836b6","GameParams.js":"51e7eece2f2f5c7486f3c24306bd629e","Trial.js":"6171e3fa7940715f1573d01ebaf67d2f"}|{"":"-1","membinding.png":"e5c71f62b0b1d9ed49a6124df8a2a9d5"}|.
Color Shapes|Color Shapes|script|05f00a3a4d555692bb54fe4faaa281dd|9999|cf778faf-52f7-4b46-84bd-5ae7e3e4b786|20|b40b3ab2-c892-4d66-b7d7-dae9ecb3e925|2020/12/04 08:18:18|8eae89c4-aa57-47b1-abad-9a8188e3531e|60.05459508644222|58.68971792538672|android|3041.0MB|40.71404029263226|{"delaytime":"900","difftrialcount":"4","fixationtime":"500","responsedisp3count":"8","shapecount":"3","studytime":"2000","swap3count":"4","trialnum":"8","gridh":"3","gridw":"3","script":"memorybinding","type":"script","defval_survey_pack_id":"demo_survey","trialtype":"1","swapcount":"3","dispcount":"3"}|1|1|2|1|0|true|memorybinding|1|3|3|3|605|1|8|4|2|0|7|6|2|1|5|1|0|1|8|6|1|1|7|1|1|0|5|4|0|2|{"GameEngine.js":"61fa031fc10c8d55d04ff952c4d14db9","Tools.js":"ca63e8aeadad3fb000f03128ed0b5770","GList.js":"532d667d75f0085221f727470ca83389","KTime.js":"875c9b3225ef5e83b5e6e0ba905a448b","ErrorMan.js":"539cd2c30aa2b5609ee615a040cdbca6","GImage.js":"8a31b421f899c53c1d76057f7aa35dc3","GColor.js":"3f152bebb4545bcef5d255a594dc52e2","memorybinding.js":"ca248b0f5cd99555cbf09db17553ab8b","Entity.js":"7c10dc4ffd31c005841e1db7e3377467","KPosition.js":"a07b31f37c9cb1fa49a6b47bff376522","KAlpha.js":"fdac535470841697614a578b451f6d35","Sprite.js":"cd811fc36d62ac5077fddf578c118bcf","GBox.js":"9c44756dbeb2733973b0bc3ec7784187","memorybinding_shape.js":"dd5e4be10d24c195176a29ea01f5a379","memorybinding_generatetrialset.js":"491124d092c3af76cc4ed38e85623581","GImage_Create.js":"ed2f46cfb944c53b9748d57bd8481fea","GButton.js":"00f4640559587f3c523855146abe359c","memorybinding.json":"1ffe30998176bb13298911f6893075db","GameRunner.js":"4ec5c05e34dd229518088607e762bdc4","KTrigger.js":"359598582677ba151569c2da9b85f2c8","GMap.js":"6f664b3e3d5cef53b028ecbddde836b6","GameParams.js":"51e7eece2f2f5c7486f3c24306bd629e","Trial.js":"6171e3fa7940715f1573d01ebaf67d2f"}|{"":"-1","membinding.png":"e5c71f62b0b1d9ed49a6124df8a2a9d5"}|.
