cogtask_name|cogtask_display_name|cogtask_type|cogtask_all_params_checksum|participant_id|cogtask_run_uuid|session_id|session_uuid|time_stamp|trial_uuid|cogtask_fps|cogtask_cps|os|mem_free_total|mem_free_perc|cogtask_trial_params|block_id|trialset_id|trial_num|block_num|block_trial_num|is_script|cogtask_script|zipfile|filename|phase|item|target_price|choice|judgement_RT|use_phase|experiment_run_type|script_checksum|cogtask_resource_checksum|cogtask_error|distractor_price|choiceRT|
Shopping List|Shopping List|script|e31e0d64c3a0e6949e5e35c02a7b4d26|9999|9bccf01c-8c06-4d64-aad2-4c2dc8c9e2de|69|d74951c6-2f58-49cb-90f0-f6ef0b570a7f|2021/03/23 15:27:29|fbcc81f9-2853-4d01-9083-0e721c8c8fe6|59.69331872946331|59.145673603504925|android|1557.0MB|28.504056566748375|{"type":"script","script":"shoppinglist","instructions":"quick_instructions","zipfile":"shoppinglist.zip","listselect":"random","defval_survey_pack_id":"demo_survey1","usefile":"set30_3.csv","usedrandomfile":"true","raw_trial_id":"0"}|1|1|1|1|0|true|shoppinglist|shoppinglist.zip|set30_3.csv|1|pineapple|3.92|yes|516|0|full|{"GameEngine.js":"61fa031fc10c8d55d04ff952c4d14db9","Tools.js":"ca63e8aeadad3fb000f03128ed0b5770","GList.js":"48afd19d16e1f6eb786bf1d1d62f50a7","KTime.js":"875c9b3225ef5e83b5e6e0ba905a448b","ErrorMan.js":"539cd2c30aa2b5609ee615a040cdbca6","GImage.js":"8a31b421f899c53c1d76057f7aa35dc3","GColor.js":"3f152bebb4545bcef5d255a594dc52e2","shoppinglist.js":"8a3b5dcc2bdc2bc8acc0a9894ef46f80","Entity.js":"7c10dc4ffd31c005841e1db7e3377467","KPosition.js":"a07b31f37c9cb1fa49a6b47bff376522","KAlpha.js":"fdac535470841697614a578b451f6d35","Sprite.js":"cd811fc36d62ac5077fddf578c118bcf","GBox.js":"9c44756dbeb2733973b0bc3ec7784187","GButton.js":"00f4640559587f3c523855146abe359c","GImage_Create.js":"ed2f46cfb944c53b9748d57bd8481fea","Trial.js":"5e17378605edc262bc52c899f9c4eb60","ZipReader.js":"c32b070eee4998f1adb1f0fedd3f2855","KFile.js":"a6da0cef6d8e04cb10100c880f917c99","KReader.js":"6885e0e1596e237d5ef5b0ec7e4427b3","KWriter.js":"99db3ce49718bf32dc2063252e2cdc25","shoppinglist_tools.js":"146e4ef708dff75052eb2d3c235c1687","shoppinglist.json":"60f1fc63a7dfdb5ed248d6a16a1f09f8","GameRunner.js":"65a5ea6a604c5d21b86468ee7fea326c","KTrigger.js":"19f22b68f33519aece7c52a0f8ae3e37","GMap.js":"6f664b3e3d5cef53b028ecbddde836b6","GameParams.js":"51e7eece2f2f5c7486f3c24306bd629e"}|{"":"-1"}|.|.|.
Shopping List|Shopping List|script|e31e0d64c3a0e6949e5e35c02a7b4d26|9999|9bccf01c-8c06-4d64-aad2-4c2dc8c9e2de|69|d74951c6-2f58-49cb-90f0-f6ef0b570a7f|2021/03/23 15:27:31|a24f0076-25f8-46fc-a40a-900150d2fe92|59.894304169113326|58.71990604815032|android|1556.0MB|28.47925035189796|{"type":"script","script":"shoppinglist","instructions":"quick_instructions","zipfile":"shoppinglist.zip","listselect":"random","defval_survey_pack_id":"demo_survey1","usefile":"set30_3.csv","usedrandomfile":"true","raw_trial_id":"1"}|1|1|2|1|0|true|shoppinglist|shoppinglist.zip|set30_3.csv|1|pencils|8.52|yes|389|0|full|{"GameEngine.js":"61fa031fc10c8d55d04ff952c4d14db9","Tools.js":"ca63e8aeadad3fb000f03128ed0b5770","GList.js":"48afd19d16e1f6eb786bf1d1d62f50a7","KTime.js":"875c9b3225ef5e83b5e6e0ba905a448b","ErrorMan.js":"539cd2c30aa2b5609ee615a040cdbca6","GImage.js":"8a31b421f899c53c1d76057f7aa35dc3","GColor.js":"3f152bebb4545bcef5d255a594dc52e2","shoppinglist.js":"8a3b5dcc2bdc2bc8acc0a9894ef46f80","Entity.js":"7c10dc4ffd31c005841e1db7e3377467","KPosition.js":"a07b31f37c9cb1fa49a6b47bff376522","KAlpha.js":"fdac535470841697614a578b451f6d35","Sprite.js":"cd811fc36d62ac5077fddf578c118bcf","GBox.js":"9c44756dbeb2733973b0bc3ec7784187","GButton.js":"00f4640559587f3c523855146abe359c","GImage_Create.js":"ed2f46cfb944c53b9748d57bd8481fea","Trial.js":"5e17378605edc262bc52c899f9c4eb60","ZipReader.js":"c32b070eee4998f1adb1f0fedd3f2855","KFile.js":"a6da0cef6d8e04cb10100c880f917c99","KReader.js":"6885e0e1596e237d5ef5b0ec7e4427b3","KWriter.js":"99db3ce49718bf32dc2063252e2cdc25","shoppinglist_tools.js":"146e4ef708dff75052eb2d3c235c1687","shoppinglist.json":"60f1fc63a7dfdb5ed248d6a16a1f09f8","GameRunner.js":"65a5ea6a604c5d21b86468ee7fea326c","KTrigger.js":"19f22b68f33519aece7c52a0f8ae3e37","GMap.js":"6f664b3e3d5cef53b028ecbddde836b6","GameParams.js":"51e7eece2f2f5c7486f3c24306bd629e"}|{"":"-1"}|.|.|.
Shopping List|Shopping List|script|e31e0d64c3a0e6949e5e35c02a7b4d26|9999|9bccf01c-8c06-4d64-aad2-4c2dc8c9e2de|69|d74951c6-2f58-49cb-90f0-f6ef0b570a7f|2021/03/23 15:27:33|b6e7814b-f847-433c-9236-446a05e51829|60.15485407980941|58.96366885050625|android|1555.0MB|28.46173587743585|{"type":"script","script":"shoppinglist","instructions":"quick_instructions","zipfile":"shoppinglist.zip","listselect":"random","defval_survey_pack_id":"demo_survey1","usefile":"set30_3.csv","usedrandomfile":"true","raw_trial_id":"2"}|1|1|3|1|0|true|shoppinglist|shoppinglist.zip|set30_3.csv|1|plastic wrap|2.64|yes|365|0|full|{"GameEngine.js":"61fa031fc10c8d55d04ff952c4d14db9","Tools.js":"ca63e8aeadad3fb000f03128ed0b5770","GList.js":"48afd19d16e1f6eb786bf1d1d62f50a7","KTime.js":"875c9b3225ef5e83b5e6e0ba905a448b","ErrorMan.js":"539cd2c30aa2b5609ee615a040cdbca6","GImage.js":"8a31b421f899c53c1d76057f7aa35dc3","GColor.js":"3f152bebb4545bcef5d255a594dc52e2","shoppinglist.js":"8a3b5dcc2bdc2bc8acc0a9894ef46f80","Entity.js":"7c10dc4ffd31c005841e1db7e3377467","KPosition.js":"a07b31f37c9cb1fa49a6b47bff376522","KAlpha.js":"fdac535470841697614a578b451f6d35","Sprite.js":"cd811fc36d62ac5077fddf578c118bcf","GBox.js":"9c44756dbeb2733973b0bc3ec7784187","GButton.js":"00f4640559587f3c523855146abe359c","GImage_Create.js":"ed2f46cfb944c53b9748d57bd8481fea","Trial.js":"5e17378605edc262bc52c899f9c4eb60","ZipReader.js":"c32b070eee4998f1adb1f0fedd3f2855","KFile.js":"a6da0cef6d8e04cb10100c880f917c99","KReader.js":"6885e0e1596e237d5ef5b0ec7e4427b3","KWriter.js":"99db3ce49718bf32dc2063252e2cdc25","shoppinglist_tools.js":"146e4ef708dff75052eb2d3c235c1687","shoppinglist.json":"60f1fc63a7dfdb5ed248d6a16a1f09f8","GameRunner.js":"65a5ea6a604c5d21b86468ee7fea326c","KTrigger.js":"19f22b68f33519aece7c52a0f8ae3e37","GMap.js":"6f664b3e3d5cef53b028ecbddde836b6","GameParams.js":"51e7eece2f2f5c7486f3c24306bd629e"}|{"":"-1"}|.|.|.
Shopping List|Shopping List|script|e31e0d64c3a0e6949e5e35c02a7b4d26|9999|9bccf01c-8c06-4d64-aad2-4c2dc8c9e2de|69|d74951c6-2f58-49cb-90f0-f6ef0b570a7f|2021/03/23 15:27:34|e44c47c1-00c6-48d5-949a-965054981d39|59.43627450980392|58.82352941176471|android|1570.0MB|28.745398876071153|{"type":"script","script":"shoppinglist","instructions":"quick_instructions","zipfile":"shoppinglist.zip","listselect":"random","defval_survey_pack_id":"demo_survey1","usefile":"set30_3.csv","usedrandomfile":"true","raw_trial_id":"3"}|1|1|4|1|0|true|shoppinglist|shoppinglist.zip|set30_3.csv|1|cashews|2.68|yes|318|0|full|{"GameEngine.js":"61fa031fc10c8d55d04ff952c4d14db9","Tools.js":"ca63e8aeadad3fb000f03128ed0b5770","GList.js":"48afd19d16e1f6eb786bf1d1d62f50a7","KTime.js":"875c9b3225ef5e83b5e6e0ba905a448b","ErrorMan.js":"539cd2c30aa2b5609ee615a040cdbca6","GImage.js":"8a31b421f899c53c1d76057f7aa35dc3","GColor.js":"3f152bebb4545bcef5d255a594dc52e2","shoppinglist.js":"8a3b5dcc2bdc2bc8acc0a9894ef46f80","Entity.js":"7c10dc4ffd31c005841e1db7e3377467","KPosition.js":"a07b31f37c9cb1fa49a6b47bff376522","KAlpha.js":"fdac535470841697614a578b451f6d35","Sprite.js":"cd811fc36d62ac5077fddf578c118bcf","GBox.js":"9c44756dbeb2733973b0bc3ec7784187","GButton.js":"00f4640559587f3c523855146abe359c","GImage_Create.js":"ed2f46cfb944c53b9748d57bd8481fea","Trial.js":"5e17378605edc262bc52c899f9c4eb60","ZipReader.js":"c32b070eee4998f1adb1f0fedd3f2855","KFile.js":"a6da0cef6d8e04cb10100c880f917c99","KReader.js":"6885e0e1596e237d5ef5b0ec7e4427b3","KWriter.js":"99db3ce49718bf32dc2063252e2cdc25","shoppinglist_tools.js":"146e4ef708dff75052eb2d3c235c1687","shoppinglist.json":"60f1fc63a7dfdb5ed248d6a16a1f09f8","GameRunner.js":"65a5ea6a604c5d21b86468ee7fea326c","KTrigger.js":"19f22b68f33519aece7c52a0f8ae3e37","GMap.js":"6f664b3e3d5cef53b028ecbddde836b6","GameParams.js":"51e7eece2f2f5c7486f3c24306bd629e"}|{"":"-1"}|.|.|.
Shopping List|Shopping List|script|e31e0d64c3a0e6949e5e35c02a7b4d26|9999|9bccf01c-8c06-4d64-aad2-4c2dc8c9e2de|69|d74951c6-2f58-49cb-90f0-f6ef0b570a7f|2021/03/23 15:27:36|a8f6b9ab-4497-43dd-9fed-58925db2b067|59.89110707803993|58.68118572292801|android|1568.0MB|28.710655877750398|{"type":"script","script":"shoppinglist","instructions":"quick_instructions","zipfile":"shoppinglist.zip","listselect":"random","defval_survey_pack_id":"demo_survey1","usefile":"set30_3.csv","usedrandomfile":"true","raw_trial_id":"4"}|1|1|5|1|0|true|shoppinglist|shoppinglist.zip|set30_3.csv|1|zucchini|2.17|yes|353|0|full|{"GameEngine.js":"61fa031fc10c8d55d04ff952c4d14db9","Tools.js":"ca63e8aeadad3fb000f03128ed0b5770","GList.js":"48afd19d16e1f6eb786bf1d1d62f50a7","KTime.js":"875c9b3225ef5e83b5e6e0ba905a448b","ErrorMan.js":"539cd2c30aa2b5609ee615a040cdbca6","GImage.js":"8a31b421f899c53c1d76057f7aa35dc3","GColor.js":"3f152bebb4545bcef5d255a594dc52e2","shoppinglist.js":"8a3b5dcc2bdc2bc8acc0a9894ef46f80","Entity.js":"7c10dc4ffd31c005841e1db7e3377467","KPosition.js":"a07b31f37c9cb1fa49a6b47bff376522","KAlpha.js":"fdac535470841697614a578b451f6d35","Sprite.js":"cd811fc36d62ac5077fddf578c118bcf","GBox.js":"9c44756dbeb2733973b0bc3ec7784187","GButton.js":"00f4640559587f3c523855146abe359c","GImage_Create.js":"ed2f46cfb944c53b9748d57bd8481fea","Trial.js":"5e17378605edc262bc52c899f9c4eb60","ZipReader.js":"c32b070eee4998f1adb1f0fedd3f2855","KFile.js":"a6da0cef6d8e04cb10100c880f917c99","KReader.js":"6885e0e1596e237d5ef5b0ec7e4427b3","KWriter.js":"99db3ce49718bf32dc2063252e2cdc25","shoppinglist_tools.js":"146e4ef708dff75052eb2d3c235c1687","shoppinglist.json":"60f1fc63a7dfdb5ed248d6a16a1f09f8","GameRunner.js":"65a5ea6a604c5d21b86468ee7fea326c","KTrigger.js":"19f22b68f33519aece7c52a0f8ae3e37","GMap.js":"6f664b3e3d5cef53b028ecbddde836b6","GameParams.js":"51e7eece2f2f5c7486f3c24306bd629e"}|{"":"-1"}|.|.|.
Shopping List|Shopping List|script|e31e0d64c3a0e6949e5e35c02a7b4d26|9999|9bccf01c-8c06-4d64-aad2-4c2dc8c9e2de|69|d74951c6-2f58-49cb-90f0-f6ef0b570a7f|2021/03/23 15:27:38|2dcf590c-b1ad-4535-9614-87cfc7e249e5|60.31363088057901|59.10735826296743|android|1567.0MB|28.68363354572314|{"type":"script","script":"shoppinglist","instructions":"quick_instructions","zipfile":"shoppinglist.zip","listselect":"random","defval_survey_pack_id":"demo_survey1","usefile":"set30_3.csv","usedrandomfile":"true","raw_trial_id":"5"}|1|1|6|1|0|true|shoppinglist|shoppinglist.zip|set30_3.csv|1|tortillas|9.57|yes|346|0|full|{"GameEngine.js":"61fa031fc10c8d55d04ff952c4d14db9","Tools.js":"ca63e8aeadad3fb000f03128ed0b5770","GList.js":"48afd19d16e1f6eb786bf1d1d62f50a7","KTime.js":"875c9b3225ef5e83b5e6e0ba905a448b","ErrorMan.js":"539cd2c30aa2b5609ee615a040cdbca6","GImage.js":"8a31b421f899c53c1d76057f7aa35dc3","GColor.js":"3f152bebb4545bcef5d255a594dc52e2","shoppinglist.js":"8a3b5dcc2bdc2bc8acc0a9894ef46f80","Entity.js":"7c10dc4ffd31c005841e1db7e3377467","KPosition.js":"a07b31f37c9cb1fa49a6b47bff376522","KAlpha.js":"fdac535470841697614a578b451f6d35","Sprite.js":"cd811fc36d62ac5077fddf578c118bcf","GBox.js":"9c44756dbeb2733973b0bc3ec7784187","GButton.js":"00f4640559587f3c523855146abe359c","GImage_Create.js":"ed2f46cfb944c53b9748d57bd8481fea","Trial.js":"5e17378605edc262bc52c899f9c4eb60","ZipReader.js":"c32b070eee4998f1adb1f0fedd3f2855","KFile.js":"a6da0cef6d8e04cb10100c880f917c99","KReader.js":"6885e0e1596e237d5ef5b0ec7e4427b3","KWriter.js":"99db3ce49718bf32dc2063252e2cdc25","shoppinglist_tools.js":"146e4ef708dff75052eb2d3c235c1687","shoppinglist.json":"60f1fc63a7dfdb5ed248d6a16a1f09f8","GameRunner.js":"65a5ea6a604c5d21b86468ee7fea326c","KTrigger.js":"19f22b68f33519aece7c52a0f8ae3e37","GMap.js":"6f664b3e3d5cef53b028ecbddde836b6","GameParams.js":"51e7eece2f2f5c7486f3c24306bd629e"}|{"":"-1"}|.|.|.
Shopping List|Shopping List|script|e31e0d64c3a0e6949e5e35c02a7b4d26|9999|9bccf01c-8c06-4d64-aad2-4c2dc8c9e2de|69|d74951c6-2f58-49cb-90f0-f6ef0b570a7f|2021/03/23 15:27:39|fdb405b4-8a90-459e-aa81-332d27d048b9|59.78898007033998|58.58230814294083|android|1566.0MB|28.66082898509697|{"type":"script","script":"shoppinglist","instructions":"quick_instructions","zipfile":"shoppinglist.zip","listselect":"random","defval_survey_pack_id":"demo_survey1","usefile":"set30_3.csv","usedrandomfile":"true","raw_trial_id":"6"}|1|1|7|1|0|true|shoppinglist|shoppinglist.zip|set30_3.csv|1|aspirin|4.15|yes|402|0|full|{"GameEngine.js":"61fa031fc10c8d55d04ff952c4d14db9","Tools.js":"ca63e8aeadad3fb000f03128ed0b5770","GList.js":"48afd19d16e1f6eb786bf1d1d62f50a7","KTime.js":"875c9b3225ef5e83b5e6e0ba905a448b","ErrorMan.js":"539cd2c30aa2b5609ee615a040cdbca6","GImage.js":"8a31b421f899c53c1d76057f7aa35dc3","GColor.js":"3f152bebb4545bcef5d255a594dc52e2","shoppinglist.js":"8a3b5dcc2bdc2bc8acc0a9894ef46f80","Entity.js":"7c10dc4ffd31c005841e1db7e3377467","KPosition.js":"a07b31f37c9cb1fa49a6b47bff376522","KAlpha.js":"fdac535470841697614a578b451f6d35","Sprite.js":"cd811fc36d62ac5077fddf578c118bcf","GBox.js":"9c44756dbeb2733973b0bc3ec7784187","GButton.js":"00f4640559587f3c523855146abe359c","GImage_Create.js":"ed2f46cfb944c53b9748d57bd8481fea","Trial.js":"5e17378605edc262bc52c899f9c4eb60","ZipReader.js":"c32b070eee4998f1adb1f0fedd3f2855","KFile.js":"a6da0cef6d8e04cb10100c880f917c99","KReader.js":"6885e0e1596e237d5ef5b0ec7e4427b3","KWriter.js":"99db3ce49718bf32dc2063252e2cdc25","shoppinglist_tools.js":"146e4ef708dff75052eb2d3c235c1687","shoppinglist.json":"60f1fc63a7dfdb5ed248d6a16a1f09f8","GameRunner.js":"65a5ea6a604c5d21b86468ee7fea326c","KTrigger.js":"19f22b68f33519aece7c52a0f8ae3e37","GMap.js":"6f664b3e3d5cef53b028ecbddde836b6","GameParams.js":"51e7eece2f2f5c7486f3c24306bd629e"}|{"":"-1"}|.|.|.
Shopping List|Shopping List|script|e31e0d64c3a0e6949e5e35c02a7b4d26|9999|9bccf01c-8c06-4d64-aad2-4c2dc8c9e2de|69|d74951c6-2f58-49cb-90f0-f6ef0b570a7f|2021/03/23 15:27:41|7351e584-a84d-4c63-a48d-849f7c35e885|59.4467333725721|58.85815185403178|android|1560.0MB|28.554312385307|{"type":"script","script":"shoppinglist","instructions":"quick_instructions","zipfile":"shoppinglist.zip","listselect":"random","defval_survey_pack_id":"demo_survey1","usefile":"set30_3.csv","usedrandomfile":"true","raw_trial_id":"7"}|1|1|8|1|0|true|shoppinglist|shoppinglist.zip|set30_3.csv|1|waffles|1.49|yes|403|0|full|{"GameEngine.js":"61fa031fc10c8d55d04ff952c4d14db9","Tools.js":"ca63e8aeadad3fb000f03128ed0b5770","GList.js":"48afd19d16e1f6eb786bf1d1d62f50a7","KTime.js":"875c9b3225ef5e83b5e6e0ba905a448b","ErrorMan.js":"539cd2c30aa2b5609ee615a040cdbca6","GImage.js":"8a31b421f899c53c1d76057f7aa35dc3","GColor.js":"3f152bebb4545bcef5d255a594dc52e2","shoppinglist.js":"8a3b5dcc2bdc2bc8acc0a9894ef46f80","Entity.js":"7c10dc4ffd31c005841e1db7e3377467","KPosition.js":"a07b31f37c9cb1fa49a6b47bff376522","KAlpha.js":"fdac535470841697614a578b451f6d35","Sprite.js":"cd811fc36d62ac5077fddf578c118bcf","GBox.js":"9c44756dbeb2733973b0bc3ec7784187","GButton.js":"00f4640559587f3c523855146abe359c","GImage_Create.js":"ed2f46cfb944c53b9748d57bd8481fea","Trial.js":"5e17378605edc262bc52c899f9c4eb60","ZipReader.js":"c32b070eee4998f1adb1f0fedd3f2855","KFile.js":"a6da0cef6d8e04cb10100c880f917c99","KReader.js":"6885e0e1596e237d5ef5b0ec7e4427b3","KWriter.js":"99db3ce49718bf32dc2063252e2cdc25","shoppinglist_tools.js":"146e4ef708dff75052eb2d3c235c1687","shoppinglist.json":"60f1fc63a7dfdb5ed248d6a16a1f09f8","GameRunner.js":"65a5ea6a604c5d21b86468ee7fea326c","KTrigger.js":"19f22b68f33519aece7c52a0f8ae3e37","GMap.js":"6f664b3e3d5cef53b028ecbddde836b6","GameParams.js":"51e7eece2f2f5c7486f3c24306bd629e"}|{"":"-1"}|.|.|.
Shopping List|Shopping List|script|e31e0d64c3a0e6949e5e35c02a7b4d26|9999|9bccf01c-8c06-4d64-aad2-4c2dc8c9e2de|69|d74951c6-2f58-49cb-90f0-f6ef0b570a7f|2021/03/23 15:27:43|1526e42e-43ad-440c-bc00-835757587579|59.417040358744394|58.856502242152466|android|1590.0MB|29.103909445162895|{"type":"script","script":"shoppinglist","instructions":"quick_instructions","zipfile":"shoppinglist.zip","listselect":"random","defval_survey_pack_id":"demo_survey1","usefile":"set30_3.csv","usedrandomfile":"true","raw_trial_id":"8"}|1|1|9|1|0|true|shoppinglist|shoppinglist.zip|set30_3.csv|1|sandwich|9.32|yes|476|0|full|{"GameEngine.js":"61fa031fc10c8d55d04ff952c4d14db9","Tools.js":"ca63e8aeadad3fb000f03128ed0b5770","GList.js":"48afd19d16e1f6eb786bf1d1d62f50a7","KTime.js":"875c9b3225ef5e83b5e6e0ba905a448b","ErrorMan.js":"539cd2c30aa2b5609ee615a040cdbca6","GImage.js":"8a31b421f899c53c1d76057f7aa35dc3","GColor.js":"3f152bebb4545bcef5d255a594dc52e2","shoppinglist.js":"8a3b5dcc2bdc2bc8acc0a9894ef46f80","Entity.js":"7c10dc4ffd31c005841e1db7e3377467","KPosition.js":"a07b31f37c9cb1fa49a6b47bff376522","KAlpha.js":"fdac535470841697614a578b451f6d35","Sprite.js":"cd811fc36d62ac5077fddf578c118bcf","GBox.js":"9c44756dbeb2733973b0bc3ec7784187","GButton.js":"00f4640559587f3c523855146abe359c","GImage_Create.js":"ed2f46cfb944c53b9748d57bd8481fea","Trial.js":"5e17378605edc262bc52c899f9c4eb60","ZipReader.js":"c32b070eee4998f1adb1f0fedd3f2855","KFile.js":"a6da0cef6d8e04cb10100c880f917c99","KReader.js":"6885e0e1596e237d5ef5b0ec7e4427b3","KWriter.js":"99db3ce49718bf32dc2063252e2cdc25","shoppinglist_tools.js":"146e4ef708dff75052eb2d3c235c1687","shoppinglist.json":"60f1fc63a7dfdb5ed248d6a16a1f09f8","GameRunner.js":"65a5ea6a604c5d21b86468ee7fea326c","KTrigger.js":"19f22b68f33519aece7c52a0f8ae3e37","GMap.js":"6f664b3e3d5cef53b028ecbddde836b6","GameParams.js":"51e7eece2f2f5c7486f3c24306bd629e"}|{"":"-1"}|.|.|.
Shopping List|Shopping List|script|e31e0d64c3a0e6949e5e35c02a7b4d26|9999|9bccf01c-8c06-4d64-aad2-4c2dc8c9e2de|69|d74951c6-2f58-49cb-90f0-f6ef0b570a7f|2021/03/23 15:27:45|a51368ff-87b8-455c-a113-ed305123e3cb|59.710494571773225|58.50422195416164|android|1589.0MB|29.091041668007062|{"type":"script","script":"shoppinglist","instructions":"quick_instructions","zipfile":"shoppinglist.zip","listselect":"random","defval_survey_pack_id":"demo_survey1","usefile":"set30_3.csv","usedrandomfile":"true","raw_trial_id":"9"}|1|1|10|1|0|true|shoppinglist|shoppinglist.zip|set30_3.csv|1|lotion|1.35|yes|343|0|full|{"GameEngine.js":"61fa031fc10c8d55d04ff952c4d14db9","Tools.js":"ca63e8aeadad3fb000f03128ed0b5770","GList.js":"48afd19d16e1f6eb786bf1d1d62f50a7","KTime.js":"875c9b3225ef5e83b5e6e0ba905a448b","ErrorMan.js":"539cd2c30aa2b5609ee615a040cdbca6","GImage.js":"8a31b421f899c53c1d76057f7aa35dc3","GColor.js":"3f152bebb4545bcef5d255a594dc52e2","shoppinglist.js":"8a3b5dcc2bdc2bc8acc0a9894ef46f80","Entity.js":"7c10dc4ffd31c005841e1db7e3377467","KPosition.js":"a07b31f37c9cb1fa49a6b47bff376522","KAlpha.js":"fdac535470841697614a578b451f6d35","Sprite.js":"cd811fc36d62ac5077fddf578c118bcf","GBox.js":"9c44756dbeb2733973b0bc3ec7784187","GButton.js":"00f4640559587f3c523855146abe359c","GImage_Create.js":"ed2f46cfb944c53b9748d57bd8481fea","Trial.js":"5e17378605edc262bc52c899f9c4eb60","ZipReader.js":"c32b070eee4998f1adb1f0fedd3f2855","KFile.js":"a6da0cef6d8e04cb10100c880f917c99","KReader.js":"6885e0e1596e237d5ef5b0ec7e4427b3","KWriter.js":"99db3ce49718bf32dc2063252e2cdc25","shoppinglist_tools.js":"146e4ef708dff75052eb2d3c235c1687","shoppinglist.json":"60f1fc63a7dfdb5ed248d6a16a1f09f8","GameRunner.js":"65a5ea6a604c5d21b86468ee7fea326c","KTrigger.js":"19f22b68f33519aece7c52a0f8ae3e37","GMap.js":"6f664b3e3d5cef53b028ecbddde836b6","GameParams.js":"51e7eece2f2f5c7486f3c24306bd629e"}|{"":"-1"}|.|.|.
Shopping List|Shopping List|script|e31e0d64c3a0e6949e5e35c02a7b4d26|9999|9bccf01c-8c06-4d64-aad2-4c2dc8c9e2de|69|d74951c6-2f58-49cb-90f0-f6ef0b570a7f|2021/03/23 15:27:47|4f7fd8b0-1bbe-4651-bb1e-5276a163eef8|59.701492537313435|59.22002888781897|android|1587.0MB|29.052295361237825|{"type":"script","script":"shoppinglist","instructions":"quick_instructions","zipfile":"shoppinglist.zip","listselect":"random","defval_survey_pack_id":"demo_survey1","usefile":"set30_3.csv","usedrandomfile":"true","raw_trial_id":"10"}|1|1|11|1|0|true|shoppinglist|shoppinglist.zip|set30_3.csv|2|plastic wrap|2.64|7.35|.|0|full|{"GameEngine.js":"61fa031fc10c8d55d04ff952c4d14db9","Tools.js":"ca63e8aeadad3fb000f03128ed0b5770","GList.js":"48afd19d16e1f6eb786bf1d1d62f50a7","KTime.js":"875c9b3225ef5e83b5e6e0ba905a448b","ErrorMan.js":"539cd2c30aa2b5609ee615a040cdbca6","GImage.js":"8a31b421f899c53c1d76057f7aa35dc3","GColor.js":"3f152bebb4545bcef5d255a594dc52e2","shoppinglist.js":"8a3b5dcc2bdc2bc8acc0a9894ef46f80","Entity.js":"7c10dc4ffd31c005841e1db7e3377467","KPosition.js":"a07b31f37c9cb1fa49a6b47bff376522","KAlpha.js":"fdac535470841697614a578b451f6d35","Sprite.js":"cd811fc36d62ac5077fddf578c118bcf","GBox.js":"9c44756dbeb2733973b0bc3ec7784187","GButton.js":"00f4640559587f3c523855146abe359c","GImage_Create.js":"ed2f46cfb944c53b9748d57bd8481fea","Trial.js":"5e17378605edc262bc52c899f9c4eb60","ZipReader.js":"c32b070eee4998f1adb1f0fedd3f2855","KFile.js":"a6da0cef6d8e04cb10100c880f917c99","KReader.js":"6885e0e1596e237d5ef5b0ec7e4427b3","KWriter.js":"99db3ce49718bf32dc2063252e2cdc25","shoppinglist_tools.js":"146e4ef708dff75052eb2d3c235c1687","shoppinglist.json":"60f1fc63a7dfdb5ed248d6a16a1f09f8","GameRunner.js":"65a5ea6a604c5d21b86468ee7fea326c","KTrigger.js":"19f22b68f33519aece7c52a0f8ae3e37","GMap.js":"6f664b3e3d5cef53b028ecbddde836b6","GameParams.js":"51e7eece2f2f5c7486f3c24306bd629e"}|{"":"-1"}|.|7.35|994
Shopping List|Shopping List|script|e31e0d64c3a0e6949e5e35c02a7b4d26|9999|9bccf01c-8c06-4d64-aad2-4c2dc8c9e2de|69|d74951c6-2f58-49cb-90f0-f6ef0b570a7f|2021/03/23 15:27:49|061685ee-7d97-4333-b6ea-5e2f3d93cde0|60.207991242474|59.11330049261084|android|1584.0MB|29.005971363476817|{"type":"script","script":"shoppinglist","instructions":"quick_instructions","zipfile":"shoppinglist.zip","listselect":"random","defval_survey_pack_id":"demo_survey1","usefile":"set30_3.csv","usedrandomfile":"true","raw_trial_id":"11"}|1|1|12|1|0|true|shoppinglist|shoppinglist.zip|set30_3.csv|2|waffles|1.49|7.21|.|0|full|{"GameEngine.js":"61fa031fc10c8d55d04ff952c4d14db9","Tools.js":"ca63e8aeadad3fb000f03128ed0b5770","GList.js":"48afd19d16e1f6eb786bf1d1d62f50a7","KTime.js":"875c9b3225ef5e83b5e6e0ba905a448b","ErrorMan.js":"539cd2c30aa2b5609ee615a040cdbca6","GImage.js":"8a31b421f899c53c1d76057f7aa35dc3","GColor.js":"3f152bebb4545bcef5d255a594dc52e2","shoppinglist.js":"8a3b5dcc2bdc2bc8acc0a9894ef46f80","Entity.js":"7c10dc4ffd31c005841e1db7e3377467","KPosition.js":"a07b31f37c9cb1fa49a6b47bff376522","KAlpha.js":"fdac535470841697614a578b451f6d35","Sprite.js":"cd811fc36d62ac5077fddf578c118bcf","GBox.js":"9c44756dbeb2733973b0bc3ec7784187","GButton.js":"00f4640559587f3c523855146abe359c","GImage_Create.js":"ed2f46cfb944c53b9748d57bd8481fea","Trial.js":"5e17378605edc262bc52c899f9c4eb60","ZipReader.js":"c32b070eee4998f1adb1f0fedd3f2855","KFile.js":"a6da0cef6d8e04cb10100c880f917c99","KReader.js":"6885e0e1596e237d5ef5b0ec7e4427b3","KWriter.js":"99db3ce49718bf32dc2063252e2cdc25","shoppinglist_tools.js":"146e4ef708dff75052eb2d3c235c1687","shoppinglist.json":"60f1fc63a7dfdb5ed248d6a16a1f09f8","GameRunner.js":"65a5ea6a604c5d21b86468ee7fea326c","KTrigger.js":"19f22b68f33519aece7c52a0f8ae3e37","GMap.js":"6f664b3e3d5cef53b028ecbddde836b6","GameParams.js":"51e7eece2f2f5c7486f3c24306bd629e"}|{"":"-1"}|.|7.21|766
Shopping List|Shopping List|script|e31e0d64c3a0e6949e5e35c02a7b4d26|9999|9bccf01c-8c06-4d64-aad2-4c2dc8c9e2de|69|d74951c6-2f58-49cb-90f0-f6ef0b570a7f|2021/03/23 15:27:51|91a406e5-9300-4dd2-b5d8-2940bee06bc8|59.58747135217724|58.82352941176471|android|1579.0MB|28.914467170368656|{"type":"script","script":"shoppinglist","instructions":"quick_instructions","zipfile":"shoppinglist.zip","listselect":"random","defval_survey_pack_id":"demo_survey1","usefile":"set30_3.csv","usedrandomfile":"true","raw_trial_id":"12"}|1|1|13|1|0|true|shoppinglist|shoppinglist.zip|set30_3.csv|2|zucchini|2.17|4.97|.|0|full|{"GameEngine.js":"61fa031fc10c8d55d04ff952c4d14db9","Tools.js":"ca63e8aeadad3fb000f03128ed0b5770","GList.js":"48afd19d16e1f6eb786bf1d1d62f50a7","KTime.js":"875c9b3225ef5e83b5e6e0ba905a448b","ErrorMan.js":"539cd2c30aa2b5609ee615a040cdbca6","GImage.js":"8a31b421f899c53c1d76057f7aa35dc3","GColor.js":"3f152bebb4545bcef5d255a594dc52e2","shoppinglist.js":"8a3b5dcc2bdc2bc8acc0a9894ef46f80","Entity.js":"7c10dc4ffd31c005841e1db7e3377467","KPosition.js":"a07b31f37c9cb1fa49a6b47bff376522","KAlpha.js":"fdac535470841697614a578b451f6d35","Sprite.js":"cd811fc36d62ac5077fddf578c118bcf","GBox.js":"9c44756dbeb2733973b0bc3ec7784187","GButton.js":"00f4640559587f3c523855146abe359c","GImage_Create.js":"ed2f46cfb944c53b9748d57bd8481fea","Trial.js":"5e17378605edc262bc52c899f9c4eb60","ZipReader.js":"c32b070eee4998f1adb1f0fedd3f2855","KFile.js":"a6da0cef6d8e04cb10100c880f917c99","KReader.js":"6885e0e1596e237d5ef5b0ec7e4427b3","KWriter.js":"99db3ce49718bf32dc2063252e2cdc25","shoppinglist_tools.js":"146e4ef708dff75052eb2d3c235c1687","shoppinglist.json":"60f1fc63a7dfdb5ed248d6a16a1f09f8","GameRunner.js":"65a5ea6a604c5d21b86468ee7fea326c","KTrigger.js":"19f22b68f33519aece7c52a0f8ae3e37","GMap.js":"6f664b3e3d5cef53b028ecbddde836b6","GameParams.js":"51e7eece2f2f5c7486f3c24306bd629e"}|{"":"-1"}|.|4.97|1531
Shopping List|Shopping List|script|e31e0d64c3a0e6949e5e35c02a7b4d26|9999|9bccf01c-8c06-4d64-aad2-4c2dc8c9e2de|69|d74951c6-2f58-49cb-90f0-f6ef0b570a7f|2021/03/23 15:27:53|06ffa891-c01f-4897-b9ca-d41c5e4659b1|59.915164369035|58.85471898197243|android|1578.0MB|28.881225412716084|{"type":"script","script":"shoppinglist","instructions":"quick_instructions","zipfile":"shoppinglist.zip","listselect":"random","defval_survey_pack_id":"demo_survey1","usefile":"set30_3.csv","usedrandomfile":"true","raw_trial_id":"13"}|1|1|14|1|0|true|shoppinglist|shoppinglist.zip|set30_3.csv|2|lotion|1.35|3.82|.|0|full|{"GameEngine.js":"61fa031fc10c8d55d04ff952c4d14db9","Tools.js":"ca63e8aeadad3fb000f03128ed0b5770","GList.js":"48afd19d16e1f6eb786bf1d1d62f50a7","KTime.js":"875c9b3225ef5e83b5e6e0ba905a448b","ErrorMan.js":"539cd2c30aa2b5609ee615a040cdbca6","GImage.js":"8a31b421f899c53c1d76057f7aa35dc3","GColor.js":"3f152bebb4545bcef5d255a594dc52e2","shoppinglist.js":"8a3b5dcc2bdc2bc8acc0a9894ef46f80","Entity.js":"7c10dc4ffd31c005841e1db7e3377467","KPosition.js":"a07b31f37c9cb1fa49a6b47bff376522","KAlpha.js":"fdac535470841697614a578b451f6d35","Sprite.js":"cd811fc36d62ac5077fddf578c118bcf","GBox.js":"9c44756dbeb2733973b0bc3ec7784187","GButton.js":"00f4640559587f3c523855146abe359c","GImage_Create.js":"ed2f46cfb944c53b9748d57bd8481fea","Trial.js":"5e17378605edc262bc52c899f9c4eb60","ZipReader.js":"c32b070eee4998f1adb1f0fedd3f2855","KFile.js":"a6da0cef6d8e04cb10100c880f917c99","KReader.js":"6885e0e1596e237d5ef5b0ec7e4427b3","KWriter.js":"99db3ce49718bf32dc2063252e2cdc25","shoppinglist_tools.js":"146e4ef708dff75052eb2d3c235c1687","shoppinglist.json":"60f1fc63a7dfdb5ed248d6a16a1f09f8","GameRunner.js":"65a5ea6a604c5d21b86468ee7fea326c","KTrigger.js":"19f22b68f33519aece7c52a0f8ae3e37","GMap.js":"6f664b3e3d5cef53b028ecbddde836b6","GameParams.js":"51e7eece2f2f5c7486f3c24306bd629e"}|{"":"-1"}|.|3.82|814
Shopping List|Shopping List|script|e31e0d64c3a0e6949e5e35c02a7b4d26|9999|9bccf01c-8c06-4d64-aad2-4c2dc8c9e2de|69|d74951c6-2f58-49cb-90f0-f6ef0b570a7f|2021/03/23 15:27:55|fdafb0b7-e960-4849-b0f9-1b353121829d|60.05361930294906|58.41371918542336|android|1585.0MB|29.02377178854239|{"type":"script","script":"shoppinglist","instructions":"quick_instructions","zipfile":"shoppinglist.zip","listselect":"random","defval_survey_pack_id":"demo_survey1","usefile":"set30_3.csv","usedrandomfile":"true","raw_trial_id":"14"}|1|1|15|1|0|true|shoppinglist|shoppinglist.zip|set30_3.csv|2|cashews|2.68|6.95|.|0|full|{"GameEngine.js":"61fa031fc10c8d55d04ff952c4d14db9","Tools.js":"ca63e8aeadad3fb000f03128ed0b5770","GList.js":"48afd19d16e1f6eb786bf1d1d62f50a7","KTime.js":"875c9b3225ef5e83b5e6e0ba905a448b","ErrorMan.js":"539cd2c30aa2b5609ee615a040cdbca6","GImage.js":"8a31b421f899c53c1d76057f7aa35dc3","GColor.js":"3f152bebb4545bcef5d255a594dc52e2","shoppinglist.js":"8a3b5dcc2bdc2bc8acc0a9894ef46f80","Entity.js":"7c10dc4ffd31c005841e1db7e3377467","KPosition.js":"a07b31f37c9cb1fa49a6b47bff376522","KAlpha.js":"fdac535470841697614a578b451f6d35","Sprite.js":"cd811fc36d62ac5077fddf578c118bcf","GBox.js":"9c44756dbeb2733973b0bc3ec7784187","GButton.js":"00f4640559587f3c523855146abe359c","GImage_Create.js":"ed2f46cfb944c53b9748d57bd8481fea","Trial.js":"5e17378605edc262bc52c899f9c4eb60","ZipReader.js":"c32b070eee4998f1adb1f0fedd3f2855","KFile.js":"a6da0cef6d8e04cb10100c880f917c99","KReader.js":"6885e0e1596e237d5ef5b0ec7e4427b3","KWriter.js":"99db3ce49718bf32dc2063252e2cdc25","shoppinglist_tools.js":"146e4ef708dff75052eb2d3c235c1687","shoppinglist.json":"60f1fc63a7dfdb5ed248d6a16a1f09f8","GameRunner.js":"65a5ea6a604c5d21b86468ee7fea326c","KTrigger.js":"19f22b68f33519aece7c52a0f8ae3e37","GMap.js":"6f664b3e3d5cef53b028ecbddde836b6","GameParams.js":"51e7eece2f2f5c7486f3c24306bd629e"}|{"":"-1"}|.|6.95|799
Shopping List|Shopping List|script|e31e0d64c3a0e6949e5e35c02a7b4d26|9999|9bccf01c-8c06-4d64-aad2-4c2dc8c9e2de|69|d74951c6-2f58-49cb-90f0-f6ef0b570a7f|2021/03/23 15:27:57|614d70a6-2dd6-4ff8-aeae-9d9325213f72|59.42184154175589|59.42184154175589|android|1584.0MB|29.000967227916213|{"type":"script","script":"shoppinglist","instructions":"quick_instructions","zipfile":"shoppinglist.zip","listselect":"random","defval_survey_pack_id":"demo_survey1","usefile":"set30_3.csv","usedrandomfile":"true","raw_trial_id":"15"}|1|1|16|1|0|true|shoppinglist|shoppinglist.zip|set30_3.csv|2|sandwich|9.32|9.32|.|0|full|{"GameEngine.js":"61fa031fc10c8d55d04ff952c4d14db9","Tools.js":"ca63e8aeadad3fb000f03128ed0b5770","GList.js":"48afd19d16e1f6eb786bf1d1d62f50a7","KTime.js":"875c9b3225ef5e83b5e6e0ba905a448b","ErrorMan.js":"539cd2c30aa2b5609ee615a040cdbca6","GImage.js":"8a31b421f899c53c1d76057f7aa35dc3","GColor.js":"3f152bebb4545bcef5d255a594dc52e2","shoppinglist.js":"8a3b5dcc2bdc2bc8acc0a9894ef46f80","Entity.js":"7c10dc4ffd31c005841e1db7e3377467","KPosition.js":"a07b31f37c9cb1fa49a6b47bff376522","KAlpha.js":"fdac535470841697614a578b451f6d35","Sprite.js":"cd811fc36d62ac5077fddf578c118bcf","GBox.js":"9c44756dbeb2733973b0bc3ec7784187","GButton.js":"00f4640559587f3c523855146abe359c","GImage_Create.js":"ed2f46cfb944c53b9748d57bd8481fea","Trial.js":"5e17378605edc262bc52c899f9c4eb60","ZipReader.js":"c32b070eee4998f1adb1f0fedd3f2855","KFile.js":"a6da0cef6d8e04cb10100c880f917c99","KReader.js":"6885e0e1596e237d5ef5b0ec7e4427b3","KWriter.js":"99db3ce49718bf32dc2063252e2cdc25","shoppinglist_tools.js":"146e4ef708dff75052eb2d3c235c1687","shoppinglist.json":"60f1fc63a7dfdb5ed248d6a16a1f09f8","GameRunner.js":"65a5ea6a604c5d21b86468ee7fea326c","KTrigger.js":"19f22b68f33519aece7c52a0f8ae3e37","GMap.js":"6f664b3e3d5cef53b028ecbddde836b6","GameParams.js":"51e7eece2f2f5c7486f3c24306bd629e"}|{"":"-1"}|.|6.73|802
Shopping List|Shopping List|script|e31e0d64c3a0e6949e5e35c02a7b4d26|9999|9bccf01c-8c06-4d64-aad2-4c2dc8c9e2de|69|d74951c6-2f58-49cb-90f0-f6ef0b570a7f|2021/03/23 15:27:59|a4e74af3-40e1-4d5c-be1d-8b58257a74e4|59.82436882546652|59.275521405049396|android|1582.0MB|28.963293235909966|{"type":"script","script":"shoppinglist","instructions":"quick_instructions","zipfile":"shoppinglist.zip","listselect":"random","defval_survey_pack_id":"demo_survey1","usefile":"set30_3.csv","usedrandomfile":"true","raw_trial_id":"16"}|1|1|17|1|0|true|shoppinglist|shoppinglist.zip|set30_3.csv|2|tortillas|9.57|7.81|.|0|full|{"GameEngine.js":"61fa031fc10c8d55d04ff952c4d14db9","Tools.js":"ca63e8aeadad3fb000f03128ed0b5770","GList.js":"48afd19d16e1f6eb786bf1d1d62f50a7","KTime.js":"875c9b3225ef5e83b5e6e0ba905a448b","ErrorMan.js":"539cd2c30aa2b5609ee615a040cdbca6","GImage.js":"8a31b421f899c53c1d76057f7aa35dc3","GColor.js":"3f152bebb4545bcef5d255a594dc52e2","shoppinglist.js":"8a3b5dcc2bdc2bc8acc0a9894ef46f80","Entity.js":"7c10dc4ffd31c005841e1db7e3377467","KPosition.js":"a07b31f37c9cb1fa49a6b47bff376522","KAlpha.js":"fdac535470841697614a578b451f6d35","Sprite.js":"cd811fc36d62ac5077fddf578c118bcf","GBox.js":"9c44756dbeb2733973b0bc3ec7784187","GButton.js":"00f4640559587f3c523855146abe359c","GImage_Create.js":"ed2f46cfb944c53b9748d57bd8481fea","Trial.js":"5e17378605edc262bc52c899f9c4eb60","ZipReader.js":"c32b070eee4998f1adb1f0fedd3f2855","KFile.js":"a6da0cef6d8e04cb10100c880f917c99","KReader.js":"6885e0e1596e237d5ef5b0ec7e4427b3","KWriter.js":"99db3ce49718bf32dc2063252e2cdc25","shoppinglist_tools.js":"146e4ef708dff75052eb2d3c235c1687","shoppinglist.json":"60f1fc63a7dfdb5ed248d6a16a1f09f8","GameRunner.js":"65a5ea6a604c5d21b86468ee7fea326c","KTrigger.js":"19f22b68f33519aece7c52a0f8ae3e37","GMap.js":"6f664b3e3d5cef53b028ecbddde836b6","GameParams.js":"51e7eece2f2f5c7486f3c24306bd629e"}|{"":"-1"}|.|7.81|769
Shopping List|Shopping List|script|e31e0d64c3a0e6949e5e35c02a7b4d26|9999|9bccf01c-8c06-4d64-aad2-4c2dc8c9e2de|69|d74951c6-2f58-49cb-90f0-f6ef0b570a7f|2021/03/23 15:28:01|426d169c-25f1-4600-b5fb-ed5e7db2b16e|59.59183673469387|59.18367346938775|android|1576.0MB|28.8456960502358|{"type":"script","script":"shoppinglist","instructions":"quick_instructions","zipfile":"shoppinglist.zip","listselect":"random","defval_survey_pack_id":"demo_survey1","usefile":"set30_3.csv","usedrandomfile":"true","raw_trial_id":"17"}|1|1|18|1|0|true|shoppinglist|shoppinglist.zip|set30_3.csv|2|aspirin|4.15|4.15|.|0|full|{"GameEngine.js":"61fa031fc10c8d55d04ff952c4d14db9","Tools.js":"ca63e8aeadad3fb000f03128ed0b5770","GList.js":"48afd19d16e1f6eb786bf1d1d62f50a7","KTime.js":"875c9b3225ef5e83b5e6e0ba905a448b","ErrorMan.js":"539cd2c30aa2b5609ee615a040cdbca6","GImage.js":"8a31b421f899c53c1d76057f7aa35dc3","GColor.js":"3f152bebb4545bcef5d255a594dc52e2","shoppinglist.js":"8a3b5dcc2bdc2bc8acc0a9894ef46f80","Entity.js":"7c10dc4ffd31c005841e1db7e3377467","KPosition.js":"a07b31f37c9cb1fa49a6b47bff376522","KAlpha.js":"fdac535470841697614a578b451f6d35","Sprite.js":"cd811fc36d62ac5077fddf578c118bcf","GBox.js":"9c44756dbeb2733973b0bc3ec7784187","GButton.js":"00f4640559587f3c523855146abe359c","GImage_Create.js":"ed2f46cfb944c53b9748d57bd8481fea","Trial.js":"5e17378605edc262bc52c899f9c4eb60","ZipReader.js":"c32b070eee4998f1adb1f0fedd3f2855","KFile.js":"a6da0cef6d8e04cb10100c880f917c99","KReader.js":"6885e0e1596e237d5ef5b0ec7e4427b3","KWriter.js":"99db3ce49718bf32dc2063252e2cdc25","shoppinglist_tools.js":"146e4ef708dff75052eb2d3c235c1687","shoppinglist.json":"60f1fc63a7dfdb5ed248d6a16a1f09f8","GameRunner.js":"65a5ea6a604c5d21b86468ee7fea326c","KTrigger.js":"19f22b68f33519aece7c52a0f8ae3e37","GMap.js":"6f664b3e3d5cef53b028ecbddde836b6","GameParams.js":"51e7eece2f2f5c7486f3c24306bd629e"}|{"":"-1"}|.|9.37|1394
Shopping List|Shopping List|script|e31e0d64c3a0e6949e5e35c02a7b4d26|9999|9bccf01c-8c06-4d64-aad2-4c2dc8c9e2de|69|d74951c6-2f58-49cb-90f0-f6ef0b570a7f|2021/03/23 15:28:04|de118f32-0b02-42e0-aa7b-a1c940840f62|59.96621621621622|59.12162162162162|android|1573.0MB|28.80044436723778|{"type":"script","script":"shoppinglist","instructions":"quick_instructions","zipfile":"shoppinglist.zip","listselect":"random","defval_survey_pack_id":"demo_survey1","usefile":"set30_3.csv","usedrandomfile":"true","raw_trial_id":"18"}|1|1|19|1|0|true|shoppinglist|shoppinglist.zip|set30_3.csv|2|pineapple|3.92|3.92|.|0|full|{"GameEngine.js":"61fa031fc10c8d55d04ff952c4d14db9","Tools.js":"ca63e8aeadad3fb000f03128ed0b5770","GList.js":"48afd19d16e1f6eb786bf1d1d62f50a7","KTime.js":"875c9b3225ef5e83b5e6e0ba905a448b","ErrorMan.js":"539cd2c30aa2b5609ee615a040cdbca6","GImage.js":"8a31b421f899c53c1d76057f7aa35dc3","GColor.js":"3f152bebb4545bcef5d255a594dc52e2","shoppinglist.js":"8a3b5dcc2bdc2bc8acc0a9894ef46f80","Entity.js":"7c10dc4ffd31c005841e1db7e3377467","KPosition.js":"a07b31f37c9cb1fa49a6b47bff376522","KAlpha.js":"fdac535470841697614a578b451f6d35","Sprite.js":"cd811fc36d62ac5077fddf578c118bcf","GBox.js":"9c44756dbeb2733973b0bc3ec7784187","GButton.js":"00f4640559587f3c523855146abe359c","GImage_Create.js":"ed2f46cfb944c53b9748d57bd8481fea","Trial.js":"5e17378605edc262bc52c899f9c4eb60","ZipReader.js":"c32b070eee4998f1adb1f0fedd3f2855","KFile.js":"a6da0cef6d8e04cb10100c880f917c99","KReader.js":"6885e0e1596e237d5ef5b0ec7e4427b3","KWriter.js":"99db3ce49718bf32dc2063252e2cdc25","shoppinglist_tools.js":"146e4ef708dff75052eb2d3c235c1687","shoppinglist.json":"60f1fc63a7dfdb5ed248d6a16a1f09f8","GameRunner.js":"65a5ea6a604c5d21b86468ee7fea326c","KTrigger.js":"19f22b68f33519aece7c52a0f8ae3e37","GMap.js":"6f664b3e3d5cef53b028ecbddde836b6","GameParams.js":"51e7eece2f2f5c7486f3c24306bd629e"}|{"":"-1"}|.|9.86|1297
Shopping List|Shopping List|script|e31e0d64c3a0e6949e5e35c02a7b4d26|9999|9bccf01c-8c06-4d64-aad2-4c2dc8c9e2de|69|d74951c6-2f58-49cb-90f0-f6ef0b570a7f|2021/03/23 15:28:05|5f2b2399-e552-48ec-89dd-dc93a3874c4d|60.14215418261345|59.0486604702023|android|1572.0MB|28.77206376984408|{"type":"script","script":"shoppinglist","instructions":"quick_instructions","zipfile":"shoppinglist.zip","listselect":"random","defval_survey_pack_id":"demo_survey1","usefile":"set30_3.csv","usedrandomfile":"true","raw_trial_id":"19"}|1|1|20|1|0|true|shoppinglist|shoppinglist.zip|set30_3.csv|2|pencils|8.52|8.52|.|0|full|{"GameEngine.js":"61fa031fc10c8d55d04ff952c4d14db9","Tools.js":"ca63e8aeadad3fb000f03128ed0b5770","GList.js":"48afd19d16e1f6eb786bf1d1d62f50a7","KTime.js":"875c9b3225ef5e83b5e6e0ba905a448b","ErrorMan.js":"539cd2c30aa2b5609ee615a040cdbca6","GImage.js":"8a31b421f899c53c1d76057f7aa35dc3","GColor.js":"3f152bebb4545bcef5d255a594dc52e2","shoppinglist.js":"8a3b5dcc2bdc2bc8acc0a9894ef46f80","Entity.js":"7c10dc4ffd31c005841e1db7e3377467","KPosition.js":"a07b31f37c9cb1fa49a6b47bff376522","KAlpha.js":"fdac535470841697614a578b451f6d35","Sprite.js":"cd811fc36d62ac5077fddf578c118bcf","GBox.js":"9c44756dbeb2733973b0bc3ec7784187","GButton.js":"00f4640559587f3c523855146abe359c","GImage_Create.js":"ed2f46cfb944c53b9748d57bd8481fea","Trial.js":"5e17378605edc262bc52c899f9c4eb60","ZipReader.js":"c32b070eee4998f1adb1f0fedd3f2855","KFile.js":"a6da0cef6d8e04cb10100c880f917c99","KReader.js":"6885e0e1596e237d5ef5b0ec7e4427b3","KWriter.js":"99db3ce49718bf32dc2063252e2cdc25","shoppinglist_tools.js":"146e4ef708dff75052eb2d3c235c1687","shoppinglist.json":"60f1fc63a7dfdb5ed248d6a16a1f09f8","GameRunner.js":"65a5ea6a604c5d21b86468ee7fea326c","KTrigger.js":"19f22b68f33519aece7c52a0f8ae3e37","GMap.js":"6f664b3e3d5cef53b028ecbddde836b6","GameParams.js":"51e7eece2f2f5c7486f3c24306bd629e"}|{"":"-1"}|.|5.31|764
Shopping List|Shopping List|script|c90a79a85b102cb0cb7a0fb3f3cda6b9|9999|e6d68b71-8792-4c21-bf72-5c6412439518|2|9c69cf4a-94f1-44ab-8185-73fe7f509973|2021/04/08 14:34:54|df3bae7b-2970-40d3-a762-14432837c4c0|59.79457079970653|59.79457079970653|android|1270.0MB|23.252883119036913|{"type":"script","script":"shoppinglist","instructions":"quick_instructions","zipfile":"shoppinglist.zip","listselect":"random","defval_survey_pack_id":"SQF_ISS","usefile":"set29_4.csv","usedrandomfile":"true","raw_trial_id":"0"}|1|1|1|1|0|true|shoppinglist|shoppinglist.zip|set29_4.csv|1|paper towels|6.28|yes|1415|0|full|{"GameEngine.js":"61fa031fc10c8d55d04ff952c4d14db9","Tools.js":"ca63e8aeadad3fb000f03128ed0b5770","GList.js":"48afd19d16e1f6eb786bf1d1d62f50a7","KTime.js":"875c9b3225ef5e83b5e6e0ba905a448b","ErrorMan.js":"539cd2c30aa2b5609ee615a040cdbca6","GImage.js":"8a31b421f899c53c1d76057f7aa35dc3","GColor.js":"3f152bebb4545bcef5d255a594dc52e2","shoppinglist.js":"8a3b5dcc2bdc2bc8acc0a9894ef46f80","Entity.js":"7c10dc4ffd31c005841e1db7e3377467","KPosition.js":"a07b31f37c9cb1fa49a6b47bff376522","KAlpha.js":"fdac535470841697614a578b451f6d35","Sprite.js":"cd811fc36d62ac5077fddf578c118bcf","GBox.js":"9c44756dbeb2733973b0bc3ec7784187","GButton.js":"00f4640559587f3c523855146abe359c","GImage_Create.js":"ed2f46cfb944c53b9748d57bd8481fea","Trial.js":"5e17378605edc262bc52c899f9c4eb60","ZipReader.js":"c32b070eee4998f1adb1f0fedd3f2855","KFile.js":"a6da0cef6d8e04cb10100c880f917c99","KReader.js":"6885e0e1596e237d5ef5b0ec7e4427b3","KWriter.js":"99db3ce49718bf32dc2063252e2cdc25","shoppinglist_tools.js":"146e4ef708dff75052eb2d3c235c1687","shoppinglist.json":"be34afe4e9ba0fa3130b579eda40aff6","GameRunner.js":"65a5ea6a604c5d21b86468ee7fea326c","KTrigger.js":"19f22b68f33519aece7c52a0f8ae3e37","GMap.js":"6f664b3e3d5cef53b028ecbddde836b6","GameParams.js":"51e7eece2f2f5c7486f3c24306bd629e"}|{"":"-1"}|.|.|.
Shopping List|Shopping List|script|c90a79a85b102cb0cb7a0fb3f3cda6b9|9999|e6d68b71-8792-4c21-bf72-5c6412439518|2|9c69cf4a-94f1-44ab-8185-73fe7f509973|2021/04/08 14:34:57|de6f277b-362b-4347-a876-6cf1ee6d2b17|59.80761187787537|59.389376829778335|android|1248.0MB|22.845711581585494|{"type":"script","script":"shoppinglist","instructions":"quick_instructions","zipfile":"shoppinglist.zip","listselect":"random","defval_survey_pack_id":"SQF_ISS","usefile":"set29_4.csv","usedrandomfile":"true","raw_trial_id":"1"}|1|1|2|1|0|true|shoppinglist|shoppinglist.zip|set29_4.csv|1|tortillas|3.27|yes|1093|0|full|{"GameEngine.js":"61fa031fc10c8d55d04ff952c4d14db9","Tools.js":"ca63e8aeadad3fb000f03128ed0b5770","GList.js":"48afd19d16e1f6eb786bf1d1d62f50a7","KTime.js":"875c9b3225ef5e83b5e6e0ba905a448b","ErrorMan.js":"539cd2c30aa2b5609ee615a040cdbca6","GImage.js":"8a31b421f899c53c1d76057f7aa35dc3","GColor.js":"3f152bebb4545bcef5d255a594dc52e2","shoppinglist.js":"8a3b5dcc2bdc2bc8acc0a9894ef46f80","Entity.js":"7c10dc4ffd31c005841e1db7e3377467","KPosition.js":"a07b31f37c9cb1fa49a6b47bff376522","KAlpha.js":"fdac535470841697614a578b451f6d35","Sprite.js":"cd811fc36d62ac5077fddf578c118bcf","GBox.js":"9c44756dbeb2733973b0bc3ec7784187","GButton.js":"00f4640559587f3c523855146abe359c","GImage_Create.js":"ed2f46cfb944c53b9748d57bd8481fea","Trial.js":"5e17378605edc262bc52c899f9c4eb60","ZipReader.js":"c32b070eee4998f1adb1f0fedd3f2855","KFile.js":"a6da0cef6d8e04cb10100c880f917c99","KReader.js":"6885e0e1596e237d5ef5b0ec7e4427b3","KWriter.js":"99db3ce49718bf32dc2063252e2cdc25","shoppinglist_tools.js":"146e4ef708dff75052eb2d3c235c1687","shoppinglist.json":"be34afe4e9ba0fa3130b579eda40aff6","GameRunner.js":"65a5ea6a604c5d21b86468ee7fea326c","KTrigger.js":"19f22b68f33519aece7c52a0f8ae3e37","GMap.js":"6f664b3e3d5cef53b028ecbddde836b6","GameParams.js":"51e7eece2f2f5c7486f3c24306bd629e"}|{"":"-1"}|.|.|.
Shopping List|Shopping List|script|c90a79a85b102cb0cb7a0fb3f3cda6b9|9999|e6d68b71-8792-4c21-bf72-5c6412439518|2|9c69cf4a-94f1-44ab-8185-73fe7f509973|2021/04/08 14:35:01|640a6a5b-1cd9-4cca-aa70-e419c3573ab4|59.83325159391858|59.58803334968121|android|1273.0MB|23.30435143135521|{"type":"script","script":"shoppinglist","instructions":"quick_instructions","zipfile":"shoppinglist.zip","listselect":"random","defval_survey_pack_id":"SQF_ISS","usefile":"set29_4.csv","usedrandomfile":"true","raw_trial_id":"2"}|1|1|3|1|0|true|shoppinglist|shoppinglist.zip|set29_4.csv|1|limes|9.42|NONE_SELECTED|-1|0|full|{"GameEngine.js":"61fa031fc10c8d55d04ff952c4d14db9","Tools.js":"ca63e8aeadad3fb000f03128ed0b5770","GList.js":"48afd19d16e1f6eb786bf1d1d62f50a7","KTime.js":"875c9b3225ef5e83b5e6e0ba905a448b","ErrorMan.js":"539cd2c30aa2b5609ee615a040cdbca6","GImage.js":"8a31b421f899c53c1d76057f7aa35dc3","GColor.js":"3f152bebb4545bcef5d255a594dc52e2","shoppinglist.js":"8a3b5dcc2bdc2bc8acc0a9894ef46f80","Entity.js":"7c10dc4ffd31c005841e1db7e3377467","KPosition.js":"a07b31f37c9cb1fa49a6b47bff376522","KAlpha.js":"fdac535470841697614a578b451f6d35","Sprite.js":"cd811fc36d62ac5077fddf578c118bcf","GBox.js":"9c44756dbeb2733973b0bc3ec7784187","GButton.js":"00f4640559587f3c523855146abe359c","GImage_Create.js":"ed2f46cfb944c53b9748d57bd8481fea","Trial.js":"5e17378605edc262bc52c899f9c4eb60","ZipReader.js":"c32b070eee4998f1adb1f0fedd3f2855","KFile.js":"a6da0cef6d8e04cb10100c880f917c99","KReader.js":"6885e0e1596e237d5ef5b0ec7e4427b3","KWriter.js":"99db3ce49718bf32dc2063252e2cdc25","shoppinglist_tools.js":"146e4ef708dff75052eb2d3c235c1687","shoppinglist.json":"be34afe4e9ba0fa3130b579eda40aff6","GameRunner.js":"65a5ea6a604c5d21b86468ee7fea326c","KTrigger.js":"19f22b68f33519aece7c52a0f8ae3e37","GMap.js":"6f664b3e3d5cef53b028ecbddde836b6","GameParams.js":"51e7eece2f2f5c7486f3c24306bd629e"}|{"":"-1"}|.|.|.
Shopping List|Shopping List|script|c90a79a85b102cb0cb7a0fb3f3cda6b9|9999|e6d68b71-8792-4c21-bf72-5c6412439518|2|9c69cf4a-94f1-44ab-8185-73fe7f509973|2021/04/08 14:35:05|6ece6c4b-8b1d-4736-9b50-7db74727bc8e|59.90670267616007|59.90670267616007|android|1483.0MB|27.145102754341032|{"type":"script","script":"shoppinglist","instructions":"quick_instructions","zipfile":"shoppinglist.zip","listselect":"random","defval_survey_pack_id":"SQF_ISS","usefile":"set29_4.csv","usedrandomfile":"true","raw_trial_id":"3"}|1|1|4|1|0|true|shoppinglist|shoppinglist.zip|set29_4.csv|1|ramen|9.86|NONE_SELECTED|-1|0|full|{"GameEngine.js":"61fa031fc10c8d55d04ff952c4d14db9","Tools.js":"ca63e8aeadad3fb000f03128ed0b5770","GList.js":"48afd19d16e1f6eb786bf1d1d62f50a7","KTime.js":"875c9b3225ef5e83b5e6e0ba905a448b","ErrorMan.js":"539cd2c30aa2b5609ee615a040cdbca6","GImage.js":"8a31b421f899c53c1d76057f7aa35dc3","GColor.js":"3f152bebb4545bcef5d255a594dc52e2","shoppinglist.js":"8a3b5dcc2bdc2bc8acc0a9894ef46f80","Entity.js":"7c10dc4ffd31c005841e1db7e3377467","KPosition.js":"a07b31f37c9cb1fa49a6b47bff376522","KAlpha.js":"fdac535470841697614a578b451f6d35","Sprite.js":"cd811fc36d62ac5077fddf578c118bcf","GBox.js":"9c44756dbeb2733973b0bc3ec7784187","GButton.js":"00f4640559587f3c523855146abe359c","GImage_Create.js":"ed2f46cfb944c53b9748d57bd8481fea","Trial.js":"5e17378605edc262bc52c899f9c4eb60","ZipReader.js":"c32b070eee4998f1adb1f0fedd3f2855","KFile.js":"a6da0cef6d8e04cb10100c880f917c99","KReader.js":"6885e0e1596e237d5ef5b0ec7e4427b3","KWriter.js":"99db3ce49718bf32dc2063252e2cdc25","shoppinglist_tools.js":"146e4ef708dff75052eb2d3c235c1687","shoppinglist.json":"be34afe4e9ba0fa3130b579eda40aff6","GameRunner.js":"65a5ea6a604c5d21b86468ee7fea326c","KTrigger.js":"19f22b68f33519aece7c52a0f8ae3e37","GMap.js":"6f664b3e3d5cef53b028ecbddde836b6","GameParams.js":"51e7eece2f2f5c7486f3c24306bd629e"}|{"":"-1"}|.|.|.
Shopping List|Shopping List|script|c90a79a85b102cb0cb7a0fb3f3cda6b9|9999|e6d68b71-8792-4c21-bf72-5c6412439518|2|9c69cf4a-94f1-44ab-8185-73fe7f509973|2021/04/08 14:35:09|7fcaaa7b-4eb0-4bd1-a571-a4759b5d48cd|59.7599804065638|59.7599804065638|android|1418.0MB|25.959258541774044|{"type":"script","script":"shoppinglist","instructions":"quick_instructions","zipfile":"shoppinglist.zip","listselect":"random","defval_survey_pack_id":"SQF_ISS","usefile":"set29_4.csv","usedrandomfile":"true","raw_trial_id":"4"}|1|1|5|1|0|true|shoppinglist|shoppinglist.zip|set29_4.csv|1|sponge|1.73|NONE_SELECTED|-1|0|full|{"GameEngine.js":"61fa031fc10c8d55d04ff952c4d14db9","Tools.js":"ca63e8aeadad3fb000f03128ed0b5770","GList.js":"48afd19d16e1f6eb786bf1d1d62f50a7","KTime.js":"875c9b3225ef5e83b5e6e0ba905a448b","ErrorMan.js":"539cd2c30aa2b5609ee615a040cdbca6","GImage.js":"8a31b421f899c53c1d76057f7aa35dc3","GColor.js":"3f152bebb4545bcef5d255a594dc52e2","shoppinglist.js":"8a3b5dcc2bdc2bc8acc0a9894ef46f80","Entity.js":"7c10dc4ffd31c005841e1db7e3377467","KPosition.js":"a07b31f37c9cb1fa49a6b47bff376522","KAlpha.js":"fdac535470841697614a578b451f6d35","Sprite.js":"cd811fc36d62ac5077fddf578c118bcf","GBox.js":"9c44756dbeb2733973b0bc3ec7784187","GButton.js":"00f4640559587f3c523855146abe359c","GImage_Create.js":"ed2f46cfb944c53b9748d57bd8481fea","Trial.js":"5e17378605edc262bc52c899f9c4eb60","ZipReader.js":"c32b070eee4998f1adb1f0fedd3f2855","KFile.js":"a6da0cef6d8e04cb10100c880f917c99","KReader.js":"6885e0e1596e237d5ef5b0ec7e4427b3","KWriter.js":"99db3ce49718bf32dc2063252e2cdc25","shoppinglist_tools.js":"146e4ef708dff75052eb2d3c235c1687","shoppinglist.json":"be34afe4e9ba0fa3130b579eda40aff6","GameRunner.js":"65a5ea6a604c5d21b86468ee7fea326c","KTrigger.js":"19f22b68f33519aece7c52a0f8ae3e37","GMap.js":"6f664b3e3d5cef53b028ecbddde836b6","GameParams.js":"51e7eece2f2f5c7486f3c24306bd629e"}|{"":"-1"}|.|.|.
Shopping List|Shopping List|script|c90a79a85b102cb0cb7a0fb3f3cda6b9|9999|e6d68b71-8792-4c21-bf72-5c6412439518|2|9c69cf4a-94f1-44ab-8185-73fe7f509973|2021/04/08 14:35:13|f3590b51-9cf9-4fa5-abf7-bfa983878d96|59.73451327433629|59.98033431661751|android|1448.0MB|26.51046986994958|{"type":"script","script":"shoppinglist","instructions":"quick_instructions","zipfile":"shoppinglist.zip","listselect":"random","defval_survey_pack_id":"SQF_ISS","usefile":"set29_4.csv","usedrandomfile":"true","raw_trial_id":"5"}|1|1|6|1|0|true|shoppinglist|shoppinglist.zip|set29_4.csv|1|vegetable oil|3.25|NONE_SELECTED|-1|0|full|{"GameEngine.js":"61fa031fc10c8d55d04ff952c4d14db9","Tools.js":"ca63e8aeadad3fb000f03128ed0b5770","GList.js":"48afd19d16e1f6eb786bf1d1d62f50a7","KTime.js":"875c9b3225ef5e83b5e6e0ba905a448b","ErrorMan.js":"539cd2c30aa2b5609ee615a040cdbca6","GImage.js":"8a31b421f899c53c1d76057f7aa35dc3","GColor.js":"3f152bebb4545bcef5d255a594dc52e2","shoppinglist.js":"8a3b5dcc2bdc2bc8acc0a9894ef46f80","Entity.js":"7c10dc4ffd31c005841e1db7e3377467","KPosition.js":"a07b31f37c9cb1fa49a6b47bff376522","KAlpha.js":"fdac535470841697614a578b451f6d35","Sprite.js":"cd811fc36d62ac5077fddf578c118bcf","GBox.js":"9c44756dbeb2733973b0bc3ec7784187","GButton.js":"00f4640559587f3c523855146abe359c","GImage_Create.js":"ed2f46cfb944c53b9748d57bd8481fea","Trial.js":"5e17378605edc262bc52c899f9c4eb60","ZipReader.js":"c32b070eee4998f1adb1f0fedd3f2855","KFile.js":"a6da0cef6d8e04cb10100c880f917c99","KReader.js":"6885e0e1596e237d5ef5b0ec7e4427b3","KWriter.js":"99db3ce49718bf32dc2063252e2cdc25","shoppinglist_tools.js":"146e4ef708dff75052eb2d3c235c1687","shoppinglist.json":"be34afe4e9ba0fa3130b579eda40aff6","GameRunner.js":"65a5ea6a604c5d21b86468ee7fea326c","KTrigger.js":"19f22b68f33519aece7c52a0f8ae3e37","GMap.js":"6f664b3e3d5cef53b028ecbddde836b6","GameParams.js":"51e7eece2f2f5c7486f3c24306bd629e"}|{"":"-1"}|.|.|.
Shopping List|Shopping List|script|c90a79a85b102cb0cb7a0fb3f3cda6b9|9999|e6d68b71-8792-4c21-bf72-5c6412439518|2|9c69cf4a-94f1-44ab-8185-73fe7f509973|2021/04/08 14:35:17|330ce550-e97e-4bd4-95ab-af82886b4f85|60.02460024600246|59.77859778597785|android|1471.0MB|26.92386049513946|{"type":"script","script":"shoppinglist","instructions":"quick_instructions","zipfile":"shoppinglist.zip","listselect":"random","defval_survey_pack_id":"SQF_ISS","usefile":"set29_4.csv","usedrandomfile":"true","raw_trial_id":"6"}|1|1|7|1|0|true|shoppinglist|shoppinglist.zip|set29_4.csv|1|salad|4.21|NONE_SELECTED|-1|0|full|{"GameEngine.js":"61fa031fc10c8d55d04ff952c4d14db9","Tools.js":"ca63e8aeadad3fb000f03128ed0b5770","GList.js":"48afd19d16e1f6eb786bf1d1d62f50a7","KTime.js":"875c9b3225ef5e83b5e6e0ba905a448b","ErrorMan.js":"539cd2c30aa2b5609ee615a040cdbca6","GImage.js":"8a31b421f899c53c1d76057f7aa35dc3","GColor.js":"3f152bebb4545bcef5d255a594dc52e2","shoppinglist.js":"8a3b5dcc2bdc2bc8acc0a9894ef46f80","Entity.js":"7c10dc4ffd31c005841e1db7e3377467","KPosition.js":"a07b31f37c9cb1fa49a6b47bff376522","KAlpha.js":"fdac535470841697614a578b451f6d35","Sprite.js":"cd811fc36d62ac5077fddf578c118bcf","GBox.js":"9c44756dbeb2733973b0bc3ec7784187","GButton.js":"00f4640559587f3c523855146abe359c","GImage_Create.js":"ed2f46cfb944c53b9748d57bd8481fea","Trial.js":"5e17378605edc262bc52c899f9c4eb60","ZipReader.js":"c32b070eee4998f1adb1f0fedd3f2855","KFile.js":"a6da0cef6d8e04cb10100c880f917c99","KReader.js":"6885e0e1596e237d5ef5b0ec7e4427b3","KWriter.js":"99db3ce49718bf32dc2063252e2cdc25","shoppinglist_tools.js":"146e4ef708dff75052eb2d3c235c1687","shoppinglist.json":"be34afe4e9ba0fa3130b579eda40aff6","GameRunner.js":"65a5ea6a604c5d21b86468ee7fea326c","KTrigger.js":"19f22b68f33519aece7c52a0f8ae3e37","GMap.js":"6f664b3e3d5cef53b028ecbddde836b6","GameParams.js":"51e7eece2f2f5c7486f3c24306bd629e"}|{"":"-1"}|.|.|.
Shopping List|Shopping List|script|c90a79a85b102cb0cb7a0fb3f3cda6b9|9999|e6d68b71-8792-4c21-bf72-5c6412439518|2|9c69cf4a-94f1-44ab-8185-73fe7f509973|2021/04/08 14:35:21|b18e6f64-8f7c-42e8-b8d0-bedddb5a908f|59.93150684931507|59.68688845401174|android|1505.0MB|27.541623210493242|{"type":"script","script":"shoppinglist","instructions":"quick_instructions","zipfile":"shoppinglist.zip","listselect":"random","defval_survey_pack_id":"SQF_ISS","usefile":"set29_4.csv","usedrandomfile":"true","raw_trial_id":"7"}|1|1|8|1|0|true|shoppinglist|shoppinglist.zip|set29_4.csv|1|blueberries|3.28|NONE_SELECTED|-1|0|full|{"GameEngine.js":"61fa031fc10c8d55d04ff952c4d14db9","Tools.js":"ca63e8aeadad3fb000f03128ed0b5770","GList.js":"48afd19d16e1f6eb786bf1d1d62f50a7","KTime.js":"875c9b3225ef5e83b5e6e0ba905a448b","ErrorMan.js":"539cd2c30aa2b5609ee615a040cdbca6","GImage.js":"8a31b421f899c53c1d76057f7aa35dc3","GColor.js":"3f152bebb4545bcef5d255a594dc52e2","shoppinglist.js":"8a3b5dcc2bdc2bc8acc0a9894ef46f80","Entity.js":"7c10dc4ffd31c005841e1db7e3377467","KPosition.js":"a07b31f37c9cb1fa49a6b47bff376522","KAlpha.js":"fdac535470841697614a578b451f6d35","Sprite.js":"cd811fc36d62ac5077fddf578c118bcf","GBox.js":"9c44756dbeb2733973b0bc3ec7784187","GButton.js":"00f4640559587f3c523855146abe359c","GImage_Create.js":"ed2f46cfb944c53b9748d57bd8481fea","Trial.js":"5e17378605edc262bc52c899f9c4eb60","ZipReader.js":"c32b070eee4998f1adb1f0fedd3f2855","KFile.js":"a6da0cef6d8e04cb10100c880f917c99","KReader.js":"6885e0e1596e237d5ef5b0ec7e4427b3","KWriter.js":"99db3ce49718bf32dc2063252e2cdc25","shoppinglist_tools.js":"146e4ef708dff75052eb2d3c235c1687","shoppinglist.json":"be34afe4e9ba0fa3130b579eda40aff6","GameRunner.js":"65a5ea6a604c5d21b86468ee7fea326c","KTrigger.js":"19f22b68f33519aece7c52a0f8ae3e37","GMap.js":"6f664b3e3d5cef53b028ecbddde836b6","GameParams.js":"51e7eece2f2f5c7486f3c24306bd629e"}|{"":"-1"}|.|.|.
Shopping List|Shopping List|script|c90a79a85b102cb0cb7a0fb3f3cda6b9|9999|e6d68b71-8792-4c21-bf72-5c6412439518|2|9c69cf4a-94f1-44ab-8185-73fe7f509973|2021/04/08 14:35:25|d35dcc73-23c3-4bbd-b94f-86af070c13ea|59.92141453831041|59.43025540275049|android|1507.0MB|27.58358418178608|{"type":"script","script":"shoppinglist","instructions":"quick_instructions","zipfile":"shoppinglist.zip","listselect":"random","defval_survey_pack_id":"SQF_ISS","usefile":"set29_4.csv","usedrandomfile":"true","raw_trial_id":"8"}|1|1|9|1|0|true|shoppinglist|shoppinglist.zip|set29_4.csv|1|zucchini|7.48|NONE_SELECTED|-1|0|full|{"GameEngine.js":"61fa031fc10c8d55d04ff952c4d14db9","Tools.js":"ca63e8aeadad3fb000f03128ed0b5770","GList.js":"48afd19d16e1f6eb786bf1d1d62f50a7","KTime.js":"875c9b3225ef5e83b5e6e0ba905a448b","ErrorMan.js":"539cd2c30aa2b5609ee615a040cdbca6","GImage.js":"8a31b421f899c53c1d76057f7aa35dc3","GColor.js":"3f152bebb4545bcef5d255a594dc52e2","shoppinglist.js":"8a3b5dcc2bdc2bc8acc0a9894ef46f80","Entity.js":"7c10dc4ffd31c005841e1db7e3377467","KPosition.js":"a07b31f37c9cb1fa49a6b47bff376522","KAlpha.js":"fdac535470841697614a578b451f6d35","Sprite.js":"cd811fc36d62ac5077fddf578c118bcf","GBox.js":"9c44756dbeb2733973b0bc3ec7784187","GButton.js":"00f4640559587f3c523855146abe359c","GImage_Create.js":"ed2f46cfb944c53b9748d57bd8481fea","Trial.js":"5e17378605edc262bc52c899f9c4eb60","ZipReader.js":"c32b070eee4998f1adb1f0fedd3f2855","KFile.js":"a6da0cef6d8e04cb10100c880f917c99","KReader.js":"6885e0e1596e237d5ef5b0ec7e4427b3","KWriter.js":"99db3ce49718bf32dc2063252e2cdc25","shoppinglist_tools.js":"146e4ef708dff75052eb2d3c235c1687","shoppinglist.json":"be34afe4e9ba0fa3130b579eda40aff6","GameRunner.js":"65a5ea6a604c5d21b86468ee7fea326c","KTrigger.js":"19f22b68f33519aece7c52a0f8ae3e37","GMap.js":"6f664b3e3d5cef53b028ecbddde836b6","GameParams.js":"51e7eece2f2f5c7486f3c24306bd629e"}|{"":"-1"}|.|.|.
Shopping List|Shopping List|script|c90a79a85b102cb0cb7a0fb3f3cda6b9|9999|e6d68b71-8792-4c21-bf72-5c6412439518|2|9c69cf4a-94f1-44ab-8185-73fe7f509973|2021/04/08 14:34:54|df3bae7b-2970-40d3-a762-14432837c4c0|59.79457079970653|59.79457079970653|android|1270.0MB|23.252883119036913|{"type":"script","script":"shoppinglist","instructions":"quick_instructions","zipfile":"shoppinglist.zip","listselect":"random","defval_survey_pack_id":"SQF_ISS","usefile":"set29_4.csv","usedrandomfile":"true","raw_trial_id":"0"}|1|1|1|1|0|true|shoppinglist|shoppinglist.zip|set29_4.csv|1|paper towels|6.28|yes|1415|0|full|{"GameEngine.js":"61fa031fc10c8d55d04ff952c4d14db9","Tools.js":"ca63e8aeadad3fb000f03128ed0b5770","GList.js":"48afd19d16e1f6eb786bf1d1d62f50a7","KTime.js":"875c9b3225ef5e83b5e6e0ba905a448b","ErrorMan.js":"539cd2c30aa2b5609ee615a040cdbca6","GImage.js":"8a31b421f899c53c1d76057f7aa35dc3","GColor.js":"3f152bebb4545bcef5d255a594dc52e2","shoppinglist.js":"8a3b5dcc2bdc2bc8acc0a9894ef46f80","Entity.js":"7c10dc4ffd31c005841e1db7e3377467","KPosition.js":"a07b31f37c9cb1fa49a6b47bff376522","KAlpha.js":"fdac535470841697614a578b451f6d35","Sprite.js":"cd811fc36d62ac5077fddf578c118bcf","GBox.js":"9c44756dbeb2733973b0bc3ec7784187","GButton.js":"00f4640559587f3c523855146abe359c","GImage_Create.js":"ed2f46cfb944c53b9748d57bd8481fea","Trial.js":"5e17378605edc262bc52c899f9c4eb60","ZipReader.js":"c32b070eee4998f1adb1f0fedd3f2855","KFile.js":"a6da0cef6d8e04cb10100c880f917c99","KReader.js":"6885e0e1596e237d5ef5b0ec7e4427b3","KWriter.js":"99db3ce49718bf32dc2063252e2cdc25","shoppinglist_tools.js":"146e4ef708dff75052eb2d3c235c1687","shoppinglist.json":"be34afe4e9ba0fa3130b579eda40aff6","GameRunner.js":"65a5ea6a604c5d21b86468ee7fea326c","KTrigger.js":"19f22b68f33519aece7c52a0f8ae3e37","GMap.js":"6f664b3e3d5cef53b028ecbddde836b6","GameParams.js":"51e7eece2f2f5c7486f3c24306bd629e"}|{"":"-1"}|.|.|.
Shopping List|Shopping List|script|c90a79a85b102cb0cb7a0fb3f3cda6b9|9999|e6d68b71-8792-4c21-bf72-5c6412439518|2|9c69cf4a-94f1-44ab-8185-73fe7f509973|2021/04/08 14:34:57|de6f277b-362b-4347-a876-6cf1ee6d2b17|59.80761187787537|59.389376829778335|android|1248.0MB|22.845711581585494|{"type":"script","script":"shoppinglist","instructions":"quick_instructions","zipfile":"shoppinglist.zip","listselect":"random","defval_survey_pack_id":"SQF_ISS","usefile":"set29_4.csv","usedrandomfile":"true","raw_trial_id":"1"}|1|1|2|1|0|true|shoppinglist|shoppinglist.zip|set29_4.csv|1|tortillas|3.27|yes|1093|0|full|{"GameEngine.js":"61fa031fc10c8d55d04ff952c4d14db9","Tools.js":"ca63e8aeadad3fb000f03128ed0b5770","GList.js":"48afd19d16e1f6eb786bf1d1d62f50a7","KTime.js":"875c9b3225ef5e83b5e6e0ba905a448b","ErrorMan.js":"539cd2c30aa2b5609ee615a040cdbca6","GImage.js":"8a31b421f899c53c1d76057f7aa35dc3","GColor.js":"3f152bebb4545bcef5d255a594dc52e2","shoppinglist.js":"8a3b5dcc2bdc2bc8acc0a9894ef46f80","Entity.js":"7c10dc4ffd31c005841e1db7e3377467","KPosition.js":"a07b31f37c9cb1fa49a6b47bff376522","KAlpha.js":"fdac535470841697614a578b451f6d35","Sprite.js":"cd811fc36d62ac5077fddf578c118bcf","GBox.js":"9c44756dbeb2733973b0bc3ec7784187","GButton.js":"00f4640559587f3c523855146abe359c","GImage_Create.js":"ed2f46cfb944c53b9748d57bd8481fea","Trial.js":"5e17378605edc262bc52c899f9c4eb60","ZipReader.js":"c32b070eee4998f1adb1f0fedd3f2855","KFile.js":"a6da0cef6d8e04cb10100c880f917c99","KReader.js":"6885e0e1596e237d5ef5b0ec7e4427b3","KWriter.js":"99db3ce49718bf32dc2063252e2cdc25","shoppinglist_tools.js":"146e4ef708dff75052eb2d3c235c1687","shoppinglist.json":"be34afe4e9ba0fa3130b579eda40aff6","GameRunner.js":"65a5ea6a604c5d21b86468ee7fea326c","KTrigger.js":"19f22b68f33519aece7c52a0f8ae3e37","GMap.js":"6f664b3e3d5cef53b028ecbddde836b6","GameParams.js":"51e7eece2f2f5c7486f3c24306bd629e"}|{"":"-1"}|.|.|.
Shopping List|Shopping List|script|c90a79a85b102cb0cb7a0fb3f3cda6b9|9999|e6d68b71-8792-4c21-bf72-5c6412439518|2|9c69cf4a-94f1-44ab-8185-73fe7f509973|2021/04/08 14:35:01|640a6a5b-1cd9-4cca-aa70-e419c3573ab4|59.83325159391858|59.58803334968121|android|1273.0MB|23.30435143135521|{"type":"script","script":"shoppinglist","instructions":"quick_instructions","zipfile":"shoppinglist.zip","listselect":"random","defval_survey_pack_id":"SQF_ISS","usefile":"set29_4.csv","usedrandomfile":"true","raw_trial_id":"2"}|1|1|3|1|0|true|shoppinglist|shoppinglist.zip|set29_4.csv|1|limes|9.42|NONE_SELECTED|-1|0|full|{"GameEngine.js":"61fa031fc10c8d55d04ff952c4d14db9","Tools.js":"ca63e8aeadad3fb000f03128ed0b5770","GList.js":"48afd19d16e1f6eb786bf1d1d62f50a7","KTime.js":"875c9b3225ef5e83b5e6e0ba905a448b","ErrorMan.js":"539cd2c30aa2b5609ee615a040cdbca6","GImage.js":"8a31b421f899c53c1d76057f7aa35dc3","GColor.js":"3f152bebb4545bcef5d255a594dc52e2","shoppinglist.js":"8a3b5dcc2bdc2bc8acc0a9894ef46f80","Entity.js":"7c10dc4ffd31c005841e1db7e3377467","KPosition.js":"a07b31f37c9cb1fa49a6b47bff376522","KAlpha.js":"fdac535470841697614a578b451f6d35","Sprite.js":"cd811fc36d62ac5077fddf578c118bcf","GBox.js":"9c44756dbeb2733973b0bc3ec7784187","GButton.js":"00f4640559587f3c523855146abe359c","GImage_Create.js":"ed2f46cfb944c53b9748d57bd8481fea","Trial.js":"5e17378605edc262bc52c899f9c4eb60","ZipReader.js":"c32b070eee4998f1adb1f0fedd3f2855","KFile.js":"a6da0cef6d8e04cb10100c880f917c99","KReader.js":"6885e0e1596e237d5ef5b0ec7e4427b3","KWriter.js":"99db3ce49718bf32dc2063252e2cdc25","shoppinglist_tools.js":"146e4ef708dff75052eb2d3c235c1687","shoppinglist.json":"be34afe4e9ba0fa3130b579eda40aff6","GameRunner.js":"65a5ea6a604c5d21b86468ee7fea326c","KTrigger.js":"19f22b68f33519aece7c52a0f8ae3e37","GMap.js":"6f664b3e3d5cef53b028ecbddde836b6","GameParams.js":"51e7eece2f2f5c7486f3c24306bd629e"}|{"":"-1"}|.|.|.
Shopping List|Shopping List|script|c90a79a85b102cb0cb7a0fb3f3cda6b9|9999|e6d68b71-8792-4c21-bf72-5c6412439518|2|9c69cf4a-94f1-44ab-8185-73fe7f509973|2021/04/08 14:35:05|6ece6c4b-8b1d-4736-9b50-7db74727bc8e|59.90670267616007|59.90670267616007|android|1483.0MB|27.145102754341032|{"type":"script","script":"shoppinglist","instructions":"quick_instructions","zipfile":"shoppinglist.zip","listselect":"random","defval_survey_pack_id":"SQF_ISS","usefile":"set29_4.csv","usedrandomfile":"true","raw_trial_id":"3"}|1|1|4|1|0|true|shoppinglist|shoppinglist.zip|set29_4.csv|1|ramen|9.86|NONE_SELECTED|-1|0|full|{"GameEngine.js":"61fa031fc10c8d55d04ff952c4d14db9","Tools.js":"ca63e8aeadad3fb000f03128ed0b5770","GList.js":"48afd19d16e1f6eb786bf1d1d62f50a7","KTime.js":"875c9b3225ef5e83b5e6e0ba905a448b","ErrorMan.js":"539cd2c30aa2b5609ee615a040cdbca6","GImage.js":"8a31b421f899c53c1d76057f7aa35dc3","GColor.js":"3f152bebb4545bcef5d255a594dc52e2","shoppinglist.js":"8a3b5dcc2bdc2bc8acc0a9894ef46f80","Entity.js":"7c10dc4ffd31c005841e1db7e3377467","KPosition.js":"a07b31f37c9cb1fa49a6b47bff376522","KAlpha.js":"fdac535470841697614a578b451f6d35","Sprite.js":"cd811fc36d62ac5077fddf578c118bcf","GBox.js":"9c44756dbeb2733973b0bc3ec7784187","GButton.js":"00f4640559587f3c523855146abe359c","GImage_Create.js":"ed2f46cfb944c53b9748d57bd8481fea","Trial.js":"5e17378605edc262bc52c899f9c4eb60","ZipReader.js":"c32b070eee4998f1adb1f0fedd3f2855","KFile.js":"a6da0cef6d8e04cb10100c880f917c99","KReader.js":"6885e0e1596e237d5ef5b0ec7e4427b3","KWriter.js":"99db3ce49718bf32dc2063252e2cdc25","shoppinglist_tools.js":"146e4ef708dff75052eb2d3c235c1687","shoppinglist.json":"be34afe4e9ba0fa3130b579eda40aff6","GameRunner.js":"65a5ea6a604c5d21b86468ee7fea326c","KTrigger.js":"19f22b68f33519aece7c52a0f8ae3e37","GMap.js":"6f664b3e3d5cef53b028ecbddde836b6","GameParams.js":"51e7eece2f2f5c7486f3c24306bd629e"}|{"":"-1"}|.|.|.
Shopping List|Shopping List|script|c90a79a85b102cb0cb7a0fb3f3cda6b9|9999|e6d68b71-8792-4c21-bf72-5c6412439518|2|9c69cf4a-94f1-44ab-8185-73fe7f509973|2021/04/08 14:35:09|7fcaaa7b-4eb0-4bd1-a571-a4759b5d48cd|59.7599804065638|59.7599804065638|android|1418.0MB|25.959258541774044|{"type":"script","script":"shoppinglist","instructions":"quick_instructions","zipfile":"shoppinglist.zip","listselect":"random","defval_survey_pack_id":"SQF_ISS","usefile":"set29_4.csv","usedrandomfile":"true","raw_trial_id":"4"}|1|1|5|1|0|true|shoppinglist|shoppinglist.zip|set29_4.csv|1|sponge|1.73|NONE_SELECTED|-1|0|full|{"GameEngine.js":"61fa031fc10c8d55d04ff952c4d14db9","Tools.js":"ca63e8aeadad3fb000f03128ed0b5770","GList.js":"48afd19d16e1f6eb786bf1d1d62f50a7","KTime.js":"875c9b3225ef5e83b5e6e0ba905a448b","ErrorMan.js":"539cd2c30aa2b5609ee615a040cdbca6","GImage.js":"8a31b421f899c53c1d76057f7aa35dc3","GColor.js":"3f152bebb4545bcef5d255a594dc52e2","shoppinglist.js":"8a3b5dcc2bdc2bc8acc0a9894ef46f80","Entity.js":"7c10dc4ffd31c005841e1db7e3377467","KPosition.js":"a07b31f37c9cb1fa49a6b47bff376522","KAlpha.js":"fdac535470841697614a578b451f6d35","Sprite.js":"cd811fc36d62ac5077fddf578c118bcf","GBox.js":"9c44756dbeb2733973b0bc3ec7784187","GButton.js":"00f4640559587f3c523855146abe359c","GImage_Create.js":"ed2f46cfb944c53b9748d57bd8481fea","Trial.js":"5e17378605edc262bc52c899f9c4eb60","ZipReader.js":"c32b070eee4998f1adb1f0fedd3f2855","KFile.js":"a6da0cef6d8e04cb10100c880f917c99","KReader.js":"6885e0e1596e237d5ef5b0ec7e4427b3","KWriter.js":"99db3ce49718bf32dc2063252e2cdc25","shoppinglist_tools.js":"146e4ef708dff75052eb2d3c235c1687","shoppinglist.json":"be34afe4e9ba0fa3130b579eda40aff6","GameRunner.js":"65a5ea6a604c5d21b86468ee7fea326c","KTrigger.js":"19f22b68f33519aece7c52a0f8ae3e37","GMap.js":"6f664b3e3d5cef53b028ecbddde836b6","GameParams.js":"51e7eece2f2f5c7486f3c24306bd629e"}|{"":"-1"}|.|.|.
Shopping List|Shopping List|script|c90a79a85b102cb0cb7a0fb3f3cda6b9|9999|e6d68b71-8792-4c21-bf72-5c6412439518|2|9c69cf4a-94f1-44ab-8185-73fe7f509973|2021/04/08 14:35:13|f3590b51-9cf9-4fa5-abf7-bfa983878d96|59.73451327433629|59.98033431661751|android|1448.0MB|26.51046986994958|{"type":"script","script":"shoppinglist","instructions":"quick_instructions","zipfile":"shoppinglist.zip","listselect":"random","defval_survey_pack_id":"SQF_ISS","usefile":"set29_4.csv","usedrandomfile":"true","raw_trial_id":"5"}|1|1|6|1|0|true|shoppinglist|shoppinglist.zip|set29_4.csv|1|vegetable oil|3.25|NONE_SELECTED|-1|0|full|{"GameEngine.js":"61fa031fc10c8d55d04ff952c4d14db9","Tools.js":"ca63e8aeadad3fb000f03128ed0b5770","GList.js":"48afd19d16e1f6eb786bf1d1d62f50a7","KTime.js":"875c9b3225ef5e83b5e6e0ba905a448b","ErrorMan.js":"539cd2c30aa2b5609ee615a040cdbca6","GImage.js":"8a31b421f899c53c1d76057f7aa35dc3","GColor.js":"3f152bebb4545bcef5d255a594dc52e2","shoppinglist.js":"8a3b5dcc2bdc2bc8acc0a9894ef46f80","Entity.js":"7c10dc4ffd31c005841e1db7e3377467","KPosition.js":"a07b31f37c9cb1fa49a6b47bff376522","KAlpha.js":"fdac535470841697614a578b451f6d35","Sprite.js":"cd811fc36d62ac5077fddf578c118bcf","GBox.js":"9c44756dbeb2733973b0bc3ec7784187","GButton.js":"00f4640559587f3c523855146abe359c","GImage_Create.js":"ed2f46cfb944c53b9748d57bd8481fea","Trial.js":"5e17378605edc262bc52c899f9c4eb60","ZipReader.js":"c32b070eee4998f1adb1f0fedd3f2855","KFile.js":"a6da0cef6d8e04cb10100c880f917c99","KReader.js":"6885e0e1596e237d5ef5b0ec7e4427b3","KWriter.js":"99db3ce49718bf32dc2063252e2cdc25","shoppinglist_tools.js":"146e4ef708dff75052eb2d3c235c1687","shoppinglist.json":"be34afe4e9ba0fa3130b579eda40aff6","GameRunner.js":"65a5ea6a604c5d21b86468ee7fea326c","KTrigger.js":"19f22b68f33519aece7c52a0f8ae3e37","GMap.js":"6f664b3e3d5cef53b028ecbddde836b6","GameParams.js":"51e7eece2f2f5c7486f3c24306bd629e"}|{"":"-1"}|.|.|.
Shopping List|Shopping List|script|c90a79a85b102cb0cb7a0fb3f3cda6b9|9999|e6d68b71-8792-4c21-bf72-5c6412439518|2|9c69cf4a-94f1-44ab-8185-73fe7f509973|2021/04/08 14:35:17|330ce550-e97e-4bd4-95ab-af82886b4f85|60.02460024600246|59.77859778597785|android|1471.0MB|26.92386049513946|{"type":"script","script":"shoppinglist","instructions":"quick_instructions","zipfile":"shoppinglist.zip","listselect":"random","defval_survey_pack_id":"SQF_ISS","usefile":"set29_4.csv","usedrandomfile":"true","raw_trial_id":"6"}|1|1|7|1|0|true|shoppinglist|shoppinglist.zip|set29_4.csv|1|salad|4.21|NONE_SELECTED|-1|0|full|{"GameEngine.js":"61fa031fc10c8d55d04ff952c4d14db9","Tools.js":"ca63e8aeadad3fb000f03128ed0b5770","GList.js":"48afd19d16e1f6eb786bf1d1d62f50a7","KTime.js":"875c9b3225ef5e83b5e6e0ba905a448b","ErrorMan.js":"539cd2c30aa2b5609ee615a040cdbca6","GImage.js":"8a31b421f899c53c1d76057f7aa35dc3","GColor.js":"3f152bebb4545bcef5d255a594dc52e2","shoppinglist.js":"8a3b5dcc2bdc2bc8acc0a9894ef46f80","Entity.js":"7c10dc4ffd31c005841e1db7e3377467","KPosition.js":"a07b31f37c9cb1fa49a6b47bff376522","KAlpha.js":"fdac535470841697614a578b451f6d35","Sprite.js":"cd811fc36d62ac5077fddf578c118bcf","GBox.js":"9c44756dbeb2733973b0bc3ec7784187","GButton.js":"00f4640559587f3c523855146abe359c","GImage_Create.js":"ed2f46cfb944c53b9748d57bd8481fea","Trial.js":"5e17378605edc262bc52c899f9c4eb60","ZipReader.js":"c32b070eee4998f1adb1f0fedd3f2855","KFile.js":"a6da0cef6d8e04cb10100c880f917c99","KReader.js":"6885e0e1596e237d5ef5b0ec7e4427b3","KWriter.js":"99db3ce49718bf32dc2063252e2cdc25","shoppinglist_tools.js":"146e4ef708dff75052eb2d3c235c1687","shoppinglist.json":"be34afe4e9ba0fa3130b579eda40aff6","GameRunner.js":"65a5ea6a604c5d21b86468ee7fea326c","KTrigger.js":"19f22b68f33519aece7c52a0f8ae3e37","GMap.js":"6f664b3e3d5cef53b028ecbddde836b6","GameParams.js":"51e7eece2f2f5c7486f3c24306bd629e"}|{"":"-1"}|.|.|.
Shopping List|Shopping List|script|c90a79a85b102cb0cb7a0fb3f3cda6b9|9999|e6d68b71-8792-4c21-bf72-5c6412439518|2|9c69cf4a-94f1-44ab-8185-73fe7f509973|2021/04/08 14:35:21|b18e6f64-8f7c-42e8-b8d0-bedddb5a908f|59.93150684931507|59.68688845401174|android|1505.0MB|27.541623210493242|{"type":"script","script":"shoppinglist","instructions":"quick_instructions","zipfile":"shoppinglist.zip","listselect":"random","defval_survey_pack_id":"SQF_ISS","usefile":"set29_4.csv","usedrandomfile":"true","raw_trial_id":"7"}|1|1|8|1|0|true|shoppinglist|shoppinglist.zip|set29_4.csv|1|blueberries|3.28|NONE_SELECTED|-1|0|full|{"GameEngine.js":"61fa031fc10c8d55d04ff952c4d14db9","Tools.js":"ca63e8aeadad3fb000f03128ed0b5770","GList.js":"48afd19d16e1f6eb786bf1d1d62f50a7","KTime.js":"875c9b3225ef5e83b5e6e0ba905a448b","ErrorMan.js":"539cd2c30aa2b5609ee615a040cdbca6","GImage.js":"8a31b421f899c53c1d76057f7aa35dc3","GColor.js":"3f152bebb4545bcef5d255a594dc52e2","shoppinglist.js":"8a3b5dcc2bdc2bc8acc0a9894ef46f80","Entity.js":"7c10dc4ffd31c005841e1db7e3377467","KPosition.js":"a07b31f37c9cb1fa49a6b47bff376522","KAlpha.js":"fdac535470841697614a578b451f6d35","Sprite.js":"cd811fc36d62ac5077fddf578c118bcf","GBox.js":"9c44756dbeb2733973b0bc3ec7784187","GButton.js":"00f4640559587f3c523855146abe359c","GImage_Create.js":"ed2f46cfb944c53b9748d57bd8481fea","Trial.js":"5e17378605edc262bc52c899f9c4eb60","ZipReader.js":"c32b070eee4998f1adb1f0fedd3f2855","KFile.js":"a6da0cef6d8e04cb10100c880f917c99","KReader.js":"6885e0e1596e237d5ef5b0ec7e4427b3","KWriter.js":"99db3ce49718bf32dc2063252e2cdc25","shoppinglist_tools.js":"146e4ef708dff75052eb2d3c235c1687","shoppinglist.json":"be34afe4e9ba0fa3130b579eda40aff6","GameRunner.js":"65a5ea6a604c5d21b86468ee7fea326c","KTrigger.js":"19f22b68f33519aece7c52a0f8ae3e37","GMap.js":"6f664b3e3d5cef53b028ecbddde836b6","GameParams.js":"51e7eece2f2f5c7486f3c24306bd629e"}|{"":"-1"}|.|.|.
Shopping List|Shopping List|script|c90a79a85b102cb0cb7a0fb3f3cda6b9|9999|e6d68b71-8792-4c21-bf72-5c6412439518|2|9c69cf4a-94f1-44ab-8185-73fe7f509973|2021/04/08 14:35:25|d35dcc73-23c3-4bbd-b94f-86af070c13ea|59.92141453831041|59.43025540275049|android|1507.0MB|27.58358418178608|{"type":"script","script":"shoppinglist","instructions":"quick_instructions","zipfile":"shoppinglist.zip","listselect":"random","defval_survey_pack_id":"SQF_ISS","usefile":"set29_4.csv","usedrandomfile":"true","raw_trial_id":"8"}|1|1|9|1|0|true|shoppinglist|shoppinglist.zip|set29_4.csv|1|zucchini|7.48|NONE_SELECTED|-1|0|full|{"GameEngine.js":"61fa031fc10c8d55d04ff952c4d14db9","Tools.js":"ca63e8aeadad3fb000f03128ed0b5770","GList.js":"48afd19d16e1f6eb786bf1d1d62f50a7","KTime.js":"875c9b3225ef5e83b5e6e0ba905a448b","ErrorMan.js":"539cd2c30aa2b5609ee615a040cdbca6","GImage.js":"8a31b421f899c53c1d76057f7aa35dc3","GColor.js":"3f152bebb4545bcef5d255a594dc52e2","shoppinglist.js":"8a3b5dcc2bdc2bc8acc0a9894ef46f80","Entity.js":"7c10dc4ffd31c005841e1db7e3377467","KPosition.js":"a07b31f37c9cb1fa49a6b47bff376522","KAlpha.js":"fdac535470841697614a578b451f6d35","Sprite.js":"cd811fc36d62ac5077fddf578c118bcf","GBox.js":"9c44756dbeb2733973b0bc3ec7784187","GButton.js":"00f4640559587f3c523855146abe359c","GImage_Create.js":"ed2f46cfb944c53b9748d57bd8481fea","Trial.js":"5e17378605edc262bc52c899f9c4eb60","ZipReader.js":"c32b070eee4998f1adb1f0fedd3f2855","KFile.js":"a6da0cef6d8e04cb10100c880f917c99","KReader.js":"6885e0e1596e237d5ef5b0ec7e4427b3","KWriter.js":"99db3ce49718bf32dc2063252e2cdc25","shoppinglist_tools.js":"146e4ef708dff75052eb2d3c235c1687","shoppinglist.json":"be34afe4e9ba0fa3130b579eda40aff6","GameRunner.js":"65a5ea6a604c5d21b86468ee7fea326c","KTrigger.js":"19f22b68f33519aece7c52a0f8ae3e37","GMap.js":"6f664b3e3d5cef53b028ecbddde836b6","GameParams.js":"51e7eece2f2f5c7486f3c24306bd629e"}|{"":"-1"}|.|.|.
Shopping List|Shopping List|script|c90a79a85b102cb0cb7a0fb3f3cda6b9|9999|e6d68b71-8792-4c21-bf72-5c6412439518|2|9c69cf4a-94f1-44ab-8185-73fe7f509973|2021/04/08 14:39:00|eae0c6f8-e06c-4c01-8cd5-26f0128748e1|5.379173244460036|-118.4587499269134|android|1463.0MB|26.78882765907104|{"type":"script","script":"shoppinglist","instructions":"quick_instructions","zipfile":"shoppinglist.zip","listselect":"random","defval_survey_pack_id":"SQF_ISS","usefile":"set29_4.csv","usedrandomfile":"true","raw_trial_id":"9"}|1|1|10|1|0|true|shoppinglist|shoppinglist.zip|set29_4.csv|1|cooking spray|9.48|NONE_SELECTED|-1|0|full|{"GameEngine.js":"61fa031fc10c8d55d04ff952c4d14db9","Tools.js":"ca63e8aeadad3fb000f03128ed0b5770","GList.js":"48afd19d16e1f6eb786bf1d1d62f50a7","KTime.js":"875c9b3225ef5e83b5e6e0ba905a448b","ErrorMan.js":"539cd2c30aa2b5609ee615a040cdbca6","GImage.js":"8a31b421f899c53c1d76057f7aa35dc3","GColor.js":"3f152bebb4545bcef5d255a594dc52e2","shoppinglist.js":"8a3b5dcc2bdc2bc8acc0a9894ef46f80","Entity.js":"7c10dc4ffd31c005841e1db7e3377467","KPosition.js":"a07b31f37c9cb1fa49a6b47bff376522","KAlpha.js":"fdac535470841697614a578b451f6d35","Sprite.js":"cd811fc36d62ac5077fddf578c118bcf","GBox.js":"9c44756dbeb2733973b0bc3ec7784187","GButton.js":"00f4640559587f3c523855146abe359c","GImage_Create.js":"ed2f46cfb944c53b9748d57bd8481fea","Trial.js":"5e17378605edc262bc52c899f9c4eb60","ZipReader.js":"c32b070eee4998f1adb1f0fedd3f2855","KFile.js":"a6da0cef6d8e04cb10100c880f917c99","KReader.js":"6885e0e1596e237d5ef5b0ec7e4427b3","KWriter.js":"99db3ce49718bf32dc2063252e2cdc25","shoppinglist_tools.js":"146e4ef708dff75052eb2d3c235c1687","shoppinglist.json":"be34afe4e9ba0fa3130b579eda40aff6","GameRunner.js":"65a5ea6a604c5d21b86468ee7fea326c","KTrigger.js":"19f22b68f33519aece7c52a0f8ae3e37","GMap.js":"6f664b3e3d5cef53b028ecbddde836b6","GameParams.js":"51e7eece2f2f5c7486f3c24306bd629e"}|{"":"-1"}|.|.|.
Shopping List|Shopping List|script|c90a79a85b102cb0cb7a0fb3f3cda6b9|9999|e6d68b71-8792-4c21-bf72-5c6412439518|2|9c69cf4a-94f1-44ab-8185-73fe7f509973|2021/04/08 14:39:03|27a3d111-a9dd-4eb9-955a-ddf9d64291d0|60.47444036084197|59.47210157033077|android|1459.0MB|26.700402239157523|{"type":"script","script":"shoppinglist","instructions":"quick_instructions","zipfile":"shoppinglist.zip","listselect":"random","defval_survey_pack_id":"SQF_ISS","usefile":"set29_4.csv","usedrandomfile":"true","raw_trial_id":"10"}|1|1|11|1|0|true|shoppinglist|shoppinglist.zip|set29_4.csv|2|sponge|1.73|1.73|.|0|full|{"GameEngine.js":"61fa031fc10c8d55d04ff952c4d14db9","Tools.js":"ca63e8aeadad3fb000f03128ed0b5770","GList.js":"48afd19d16e1f6eb786bf1d1d62f50a7","KTime.js":"875c9b3225ef5e83b5e6e0ba905a448b","ErrorMan.js":"539cd2c30aa2b5609ee615a040cdbca6","GImage.js":"8a31b421f899c53c1d76057f7aa35dc3","GColor.js":"3f152bebb4545bcef5d255a594dc52e2","shoppinglist.js":"8a3b5dcc2bdc2bc8acc0a9894ef46f80","Entity.js":"7c10dc4ffd31c005841e1db7e3377467","KPosition.js":"a07b31f37c9cb1fa49a6b47bff376522","KAlpha.js":"fdac535470841697614a578b451f6d35","Sprite.js":"cd811fc36d62ac5077fddf578c118bcf","GBox.js":"9c44756dbeb2733973b0bc3ec7784187","GButton.js":"00f4640559587f3c523855146abe359c","GImage_Create.js":"ed2f46cfb944c53b9748d57bd8481fea","Trial.js":"5e17378605edc262bc52c899f9c4eb60","ZipReader.js":"c32b070eee4998f1adb1f0fedd3f2855","KFile.js":"a6da0cef6d8e04cb10100c880f917c99","KReader.js":"6885e0e1596e237d5ef5b0ec7e4427b3","KWriter.js":"99db3ce49718bf32dc2063252e2cdc25","shoppinglist_tools.js":"146e4ef708dff75052eb2d3c235c1687","shoppinglist.json":"be34afe4e9ba0fa3130b579eda40aff6","GameRunner.js":"65a5ea6a604c5d21b86468ee7fea326c","KTrigger.js":"19f22b68f33519aece7c52a0f8ae3e37","GMap.js":"6f664b3e3d5cef53b028ecbddde836b6","GameParams.js":"51e7eece2f2f5c7486f3c24306bd629e"}|{"":"-1"}|.|2.93|1935
Shopping List|Shopping List|script|c90a79a85b102cb0cb7a0fb3f3cda6b9|9999|e6d68b71-8792-4c21-bf72-5c6412439518|2|9c69cf4a-94f1-44ab-8185-73fe7f509973|2021/04/08 14:39:06|0f58e685-8e85-4fa6-b22a-7025b667f6ea|60.225442834138484|59.25925925925926|android|1456.0MB|26.653151469098642|{"type":"script","script":"shoppinglist","instructions":"quick_instructions","zipfile":"shoppinglist.zip","listselect":"random","defval_survey_pack_id":"SQF_ISS","usefile":"set29_4.csv","usedrandomfile":"true","raw_trial_id":"11"}|1|1|12|1|0|true|shoppinglist|shoppinglist.zip|set29_4.csv|2|tortillas|3.27|5.63|.|0|full|{"GameEngine.js":"61fa031fc10c8d55d04ff952c4d14db9","Tools.js":"ca63e8aeadad3fb000f03128ed0b5770","GList.js":"48afd19d16e1f6eb786bf1d1d62f50a7","KTime.js":"875c9b3225ef5e83b5e6e0ba905a448b","ErrorMan.js":"539cd2c30aa2b5609ee615a040cdbca6","GImage.js":"8a31b421f899c53c1d76057f7aa35dc3","GColor.js":"3f152bebb4545bcef5d255a594dc52e2","shoppinglist.js":"8a3b5dcc2bdc2bc8acc0a9894ef46f80","Entity.js":"7c10dc4ffd31c005841e1db7e3377467","KPosition.js":"a07b31f37c9cb1fa49a6b47bff376522","KAlpha.js":"fdac535470841697614a578b451f6d35","Sprite.js":"cd811fc36d62ac5077fddf578c118bcf","GBox.js":"9c44756dbeb2733973b0bc3ec7784187","GButton.js":"00f4640559587f3c523855146abe359c","GImage_Create.js":"ed2f46cfb944c53b9748d57bd8481fea","Trial.js":"5e17378605edc262bc52c899f9c4eb60","ZipReader.js":"c32b070eee4998f1adb1f0fedd3f2855","KFile.js":"a6da0cef6d8e04cb10100c880f917c99","KReader.js":"6885e0e1596e237d5ef5b0ec7e4427b3","KWriter.js":"99db3ce49718bf32dc2063252e2cdc25","shoppinglist_tools.js":"146e4ef708dff75052eb2d3c235c1687","shoppinglist.json":"be34afe4e9ba0fa3130b579eda40aff6","GameRunner.js":"65a5ea6a604c5d21b86468ee7fea326c","KTrigger.js":"19f22b68f33519aece7c52a0f8ae3e37","GMap.js":"6f664b3e3d5cef53b028ecbddde836b6","GameParams.js":"51e7eece2f2f5c7486f3c24306bd629e"}|{"":"-1"}|.|5.63|2038
Shopping List|Shopping List|script|c90a79a85b102cb0cb7a0fb3f3cda6b9|9999|e6d68b71-8792-4c21-bf72-5c6412439518|2|9c69cf4a-94f1-44ab-8185-73fe7f509973|2021/04/08 14:39:08|1c1d9f21-1026-487b-b1e3-07f431e2f459|59.72625466611365|58.89672335130651|android|1453.0MB|26.60189760808167|{"type":"script","script":"shoppinglist","instructions":"quick_instructions","zipfile":"shoppinglist.zip","listselect":"random","defval_survey_pack_id":"SQF_ISS","usefile":"set29_4.csv","usedrandomfile":"true","raw_trial_id":"12"}|1|1|13|1|0|true|shoppinglist|shoppinglist.zip|set29_4.csv|2|zucchini|7.48|3.26|.|0|full|{"GameEngine.js":"61fa031fc10c8d55d04ff952c4d14db9","Tools.js":"ca63e8aeadad3fb000f03128ed0b5770","GList.js":"48afd19d16e1f6eb786bf1d1d62f50a7","KTime.js":"875c9b3225ef5e83b5e6e0ba905a448b","ErrorMan.js":"539cd2c30aa2b5609ee615a040cdbca6","GImage.js":"8a31b421f899c53c1d76057f7aa35dc3","GColor.js":"3f152bebb4545bcef5d255a594dc52e2","shoppinglist.js":"8a3b5dcc2bdc2bc8acc0a9894ef46f80","Entity.js":"7c10dc4ffd31c005841e1db7e3377467","KPosition.js":"a07b31f37c9cb1fa49a6b47bff376522","KAlpha.js":"fdac535470841697614a578b451f6d35","Sprite.js":"cd811fc36d62ac5077fddf578c118bcf","GBox.js":"9c44756dbeb2733973b0bc3ec7784187","GButton.js":"00f4640559587f3c523855146abe359c","GImage_Create.js":"ed2f46cfb944c53b9748d57bd8481fea","Trial.js":"5e17378605edc262bc52c899f9c4eb60","ZipReader.js":"c32b070eee4998f1adb1f0fedd3f2855","KFile.js":"a6da0cef6d8e04cb10100c880f917c99","KReader.js":"6885e0e1596e237d5ef5b0ec7e4427b3","KWriter.js":"99db3ce49718bf32dc2063252e2cdc25","shoppinglist_tools.js":"146e4ef708dff75052eb2d3c235c1687","shoppinglist.json":"be34afe4e9ba0fa3130b579eda40aff6","GameRunner.js":"65a5ea6a604c5d21b86468ee7fea326c","KTrigger.js":"19f22b68f33519aece7c52a0f8ae3e37","GMap.js":"6f664b3e3d5cef53b028ecbddde836b6","GameParams.js":"51e7eece2f2f5c7486f3c24306bd629e"}|{"":"-1"}|.|3.26|1342
Shopping List|Shopping List|script|c90a79a85b102cb0cb7a0fb3f3cda6b9|9999|e6d68b71-8792-4c21-bf72-5c6412439518|2|9c69cf4a-94f1-44ab-8185-73fe7f509973|2021/04/08 14:39:10|a1b1289a-dba0-4c0c-9a17-4ebef8f11afb|59.98928762720943|58.918050348152114|android|1451.0MB|26.558363993912444|{"type":"script","script":"shoppinglist","instructions":"quick_instructions","zipfile":"shoppinglist.zip","listselect":"random","defval_survey_pack_id":"SQF_ISS","usefile":"set29_4.csv","usedrandomfile":"true","raw_trial_id":"13"}|1|1|14|1|0|true|shoppinglist|shoppinglist.zip|set29_4.csv|2|blueberries|3.28|4.57|.|0|full|{"GameEngine.js":"61fa031fc10c8d55d04ff952c4d14db9","Tools.js":"ca63e8aeadad3fb000f03128ed0b5770","GList.js":"48afd19d16e1f6eb786bf1d1d62f50a7","KTime.js":"875c9b3225ef5e83b5e6e0ba905a448b","ErrorMan.js":"539cd2c30aa2b5609ee615a040cdbca6","GImage.js":"8a31b421f899c53c1d76057f7aa35dc3","GColor.js":"3f152bebb4545bcef5d255a594dc52e2","shoppinglist.js":"8a3b5dcc2bdc2bc8acc0a9894ef46f80","Entity.js":"7c10dc4ffd31c005841e1db7e3377467","KPosition.js":"a07b31f37c9cb1fa49a6b47bff376522","KAlpha.js":"fdac535470841697614a578b451f6d35","Sprite.js":"cd811fc36d62ac5077fddf578c118bcf","GBox.js":"9c44756dbeb2733973b0bc3ec7784187","GButton.js":"00f4640559587f3c523855146abe359c","GImage_Create.js":"ed2f46cfb944c53b9748d57bd8481fea","Trial.js":"5e17378605edc262bc52c899f9c4eb60","ZipReader.js":"c32b070eee4998f1adb1f0fedd3f2855","KFile.js":"a6da0cef6d8e04cb10100c880f917c99","KReader.js":"6885e0e1596e237d5ef5b0ec7e4427b3","KWriter.js":"99db3ce49718bf32dc2063252e2cdc25","shoppinglist_tools.js":"146e4ef708dff75052eb2d3c235c1687","shoppinglist.json":"be34afe4e9ba0fa3130b579eda40aff6","GameRunner.js":"65a5ea6a604c5d21b86468ee7fea326c","KTrigger.js":"19f22b68f33519aece7c52a0f8ae3e37","GMap.js":"6f664b3e3d5cef53b028ecbddde836b6","GameParams.js":"51e7eece2f2f5c7486f3c24306bd629e"}|{"":"-1"}|.|4.57|808
Shopping List|Shopping List|script|c90a79a85b102cb0cb7a0fb3f3cda6b9|9999|e6d68b71-8792-4c21-bf72-5c6412439518|2|9c69cf4a-94f1-44ab-8185-73fe7f509973|2021/04/08 14:39:13|83d52bcd-8dde-4160-9632-2895d11e4602|60.216780409474104|58.6109995985548|android|1491.0MB|27.296648340611572|{"type":"script","script":"shoppinglist","instructions":"quick_instructions","zipfile":"shoppinglist.zip","listselect":"random","defval_survey_pack_id":"SQF_ISS","usefile":"set29_4.csv","usedrandomfile":"true","raw_trial_id":"14"}|1|1|15|1|0|true|shoppinglist|shoppinglist.zip|set29_4.csv|2|paper towels|6.28|6.28|.|0|full|{"GameEngine.js":"61fa031fc10c8d55d04ff952c4d14db9","Tools.js":"ca63e8aeadad3fb000f03128ed0b5770","GList.js":"48afd19d16e1f6eb786bf1d1d62f50a7","KTime.js":"875c9b3225ef5e83b5e6e0ba905a448b","ErrorMan.js":"539cd2c30aa2b5609ee615a040cdbca6","GImage.js":"8a31b421f899c53c1d76057f7aa35dc3","GColor.js":"3f152bebb4545bcef5d255a594dc52e2","shoppinglist.js":"8a3b5dcc2bdc2bc8acc0a9894ef46f80","Entity.js":"7c10dc4ffd31c005841e1db7e3377467","KPosition.js":"a07b31f37c9cb1fa49a6b47bff376522","KAlpha.js":"fdac535470841697614a578b451f6d35","Sprite.js":"cd811fc36d62ac5077fddf578c118bcf","GBox.js":"9c44756dbeb2733973b0bc3ec7784187","GButton.js":"00f4640559587f3c523855146abe359c","GImage_Create.js":"ed2f46cfb944c53b9748d57bd8481fea","Trial.js":"5e17378605edc262bc52c899f9c4eb60","ZipReader.js":"c32b070eee4998f1adb1f0fedd3f2855","KFile.js":"a6da0cef6d8e04cb10100c880f917c99","KReader.js":"6885e0e1596e237d5ef5b0ec7e4427b3","KWriter.js":"99db3ce49718bf32dc2063252e2cdc25","shoppinglist_tools.js":"146e4ef708dff75052eb2d3c235c1687","shoppinglist.json":"be34afe4e9ba0fa3130b579eda40aff6","GameRunner.js":"65a5ea6a604c5d21b86468ee7fea326c","KTrigger.js":"19f22b68f33519aece7c52a0f8ae3e37","GMap.js":"6f664b3e3d5cef53b028ecbddde836b6","GameParams.js":"51e7eece2f2f5c7486f3c24306bd629e"}|{"":"-1"}|.|8.97|1430
Shopping List|Shopping List|script|c90a79a85b102cb0cb7a0fb3f3cda6b9|9999|e6d68b71-8792-4c21-bf72-5c6412439518|2|9c69cf4a-94f1-44ab-8185-73fe7f509973|2021/04/08 14:39:15|d4b0dbb8-4788-4a78-b1f1-7f804bdd32fd|59.74228816868411|58.96134322530262|android|1493.0MB|27.333676931973905|{"type":"script","script":"shoppinglist","instructions":"quick_instructions","zipfile":"shoppinglist.zip","listselect":"random","defval_survey_pack_id":"SQF_ISS","usefile":"set29_4.csv","usedrandomfile":"true","raw_trial_id":"15"}|1|1|16|1|0|true|shoppinglist|shoppinglist.zip|set29_4.csv|2|limes|9.42|2.71|.|0|full|{"GameEngine.js":"61fa031fc10c8d55d04ff952c4d14db9","Tools.js":"ca63e8aeadad3fb000f03128ed0b5770","GList.js":"48afd19d16e1f6eb786bf1d1d62f50a7","KTime.js":"875c9b3225ef5e83b5e6e0ba905a448b","ErrorMan.js":"539cd2c30aa2b5609ee615a040cdbca6","GImage.js":"8a31b421f899c53c1d76057f7aa35dc3","GColor.js":"3f152bebb4545bcef5d255a594dc52e2","shoppinglist.js":"8a3b5dcc2bdc2bc8acc0a9894ef46f80","Entity.js":"7c10dc4ffd31c005841e1db7e3377467","KPosition.js":"a07b31f37c9cb1fa49a6b47bff376522","KAlpha.js":"fdac535470841697614a578b451f6d35","Sprite.js":"cd811fc36d62ac5077fddf578c118bcf","GBox.js":"9c44756dbeb2733973b0bc3ec7784187","GButton.js":"00f4640559587f3c523855146abe359c","GImage_Create.js":"ed2f46cfb944c53b9748d57bd8481fea","Trial.js":"5e17378605edc262bc52c899f9c4eb60","ZipReader.js":"c32b070eee4998f1adb1f0fedd3f2855","KFile.js":"a6da0cef6d8e04cb10100c880f917c99","KReader.js":"6885e0e1596e237d5ef5b0ec7e4427b3","KWriter.js":"99db3ce49718bf32dc2063252e2cdc25","shoppinglist_tools.js":"146e4ef708dff75052eb2d3c235c1687","shoppinglist.json":"be34afe4e9ba0fa3130b579eda40aff6","GameRunner.js":"65a5ea6a604c5d21b86468ee7fea326c","KTrigger.js":"19f22b68f33519aece7c52a0f8ae3e37","GMap.js":"6f664b3e3d5cef53b028ecbddde836b6","GameParams.js":"51e7eece2f2f5c7486f3c24306bd629e"}|{"":"-1"}|.|2.71|1489
Shopping List|Shopping List|script|c90a79a85b102cb0cb7a0fb3f3cda6b9|9999|e6d68b71-8792-4c21-bf72-5c6412439518|2|9c69cf4a-94f1-44ab-8185-73fe7f509973|2021/04/08 14:39:17|67ceae91-bb7b-4269-8e94-045c97d23a04|59.65463108320251|59.13134484563056|android|1492.0MB|27.310659158964885|{"type":"script","script":"shoppinglist","instructions":"quick_instructions","zipfile":"shoppinglist.zip","listselect":"random","defval_survey_pack_id":"SQF_ISS","usefile":"set29_4.csv","usedrandomfile":"true","raw_trial_id":"16"}|1|1|17|1|0|true|shoppinglist|shoppinglist.zip|set29_4.csv|2|ramen|9.86|9.86|.|0|full|{"GameEngine.js":"61fa031fc10c8d55d04ff952c4d14db9","Tools.js":"ca63e8aeadad3fb000f03128ed0b5770","GList.js":"48afd19d16e1f6eb786bf1d1d62f50a7","KTime.js":"875c9b3225ef5e83b5e6e0ba905a448b","ErrorMan.js":"539cd2c30aa2b5609ee615a040cdbca6","GImage.js":"8a31b421f899c53c1d76057f7aa35dc3","GColor.js":"3f152bebb4545bcef5d255a594dc52e2","shoppinglist.js":"8a3b5dcc2bdc2bc8acc0a9894ef46f80","Entity.js":"7c10dc4ffd31c005841e1db7e3377467","KPosition.js":"a07b31f37c9cb1fa49a6b47bff376522","KAlpha.js":"fdac535470841697614a578b451f6d35","Sprite.js":"cd811fc36d62ac5077fddf578c118bcf","GBox.js":"9c44756dbeb2733973b0bc3ec7784187","GButton.js":"00f4640559587f3c523855146abe359c","GImage_Create.js":"ed2f46cfb944c53b9748d57bd8481fea","Trial.js":"5e17378605edc262bc52c899f9c4eb60","ZipReader.js":"c32b070eee4998f1adb1f0fedd3f2855","KFile.js":"a6da0cef6d8e04cb10100c880f917c99","KReader.js":"6885e0e1596e237d5ef5b0ec7e4427b3","KWriter.js":"99db3ce49718bf32dc2063252e2cdc25","shoppinglist_tools.js":"146e4ef708dff75052eb2d3c235c1687","shoppinglist.json":"be34afe4e9ba0fa3130b579eda40aff6","GameRunner.js":"65a5ea6a604c5d21b86468ee7fea326c","KTrigger.js":"19f22b68f33519aece7c52a0f8ae3e37","GMap.js":"6f664b3e3d5cef53b028ecbddde836b6","GameParams.js":"51e7eece2f2f5c7486f3c24306bd629e"}|{"":"-1"}|.|8.69|837
Shopping List|Shopping List|script|c90a79a85b102cb0cb7a0fb3f3cda6b9|9999|e6d68b71-8792-4c21-bf72-5c6412439518|2|9c69cf4a-94f1-44ab-8185-73fe7f509973|2021/04/08 14:39:20|0bf2a472-91b3-4c29-8f21-fac3e30ca191|59.88274706867672|59.04522613065327|android|1486.0MB|27.203647959603096|{"type":"script","script":"shoppinglist","instructions":"quick_instructions","zipfile":"shoppinglist.zip","listselect":"random","defval_survey_pack_id":"SQF_ISS","usefile":"set29_4.csv","usedrandomfile":"true","raw_trial_id":"17"}|1|1|18|1|0|true|shoppinglist|shoppinglist.zip|set29_4.csv|2|vegetable oil|3.25|7.85|.|0|full|{"GameEngine.js":"61fa031fc10c8d55d04ff952c4d14db9","Tools.js":"ca63e8aeadad3fb000f03128ed0b5770","GList.js":"48afd19d16e1f6eb786bf1d1d62f50a7","KTime.js":"875c9b3225ef5e83b5e6e0ba905a448b","ErrorMan.js":"539cd2c30aa2b5609ee615a040cdbca6","GImage.js":"8a31b421f899c53c1d76057f7aa35dc3","GColor.js":"3f152bebb4545bcef5d255a594dc52e2","shoppinglist.js":"8a3b5dcc2bdc2bc8acc0a9894ef46f80","Entity.js":"7c10dc4ffd31c005841e1db7e3377467","KPosition.js":"a07b31f37c9cb1fa49a6b47bff376522","KAlpha.js":"fdac535470841697614a578b451f6d35","Sprite.js":"cd811fc36d62ac5077fddf578c118bcf","GBox.js":"9c44756dbeb2733973b0bc3ec7784187","GButton.js":"00f4640559587f3c523855146abe359c","GImage_Create.js":"ed2f46cfb944c53b9748d57bd8481fea","Trial.js":"5e17378605edc262bc52c899f9c4eb60","ZipReader.js":"c32b070eee4998f1adb1f0fedd3f2855","KFile.js":"a6da0cef6d8e04cb10100c880f917c99","KReader.js":"6885e0e1596e237d5ef5b0ec7e4427b3","KWriter.js":"99db3ce49718bf32dc2063252e2cdc25","shoppinglist_tools.js":"146e4ef708dff75052eb2d3c235c1687","shoppinglist.json":"be34afe4e9ba0fa3130b579eda40aff6","GameRunner.js":"65a5ea6a604c5d21b86468ee7fea326c","KTrigger.js":"19f22b68f33519aece7c52a0f8ae3e37","GMap.js":"6f664b3e3d5cef53b028ecbddde836b6","GameParams.js":"51e7eece2f2f5c7486f3c24306bd629e"}|{"":"-1"}|.|7.85|1307
Shopping List|Shopping List|script|c90a79a85b102cb0cb7a0fb3f3cda6b9|9999|e6d68b71-8792-4c21-bf72-5c6412439518|2|9c69cf4a-94f1-44ab-8185-73fe7f509973|2021/04/08 14:39:22|38d2a900-595d-4777-ae88-49dde7bfca43|59.451219512195124|58.94308943089431|android|1511.0MB|27.66786354320729|{"type":"script","script":"shoppinglist","instructions":"quick_instructions","zipfile":"shoppinglist.zip","listselect":"random","defval_survey_pack_id":"SQF_ISS","usefile":"set29_4.csv","usedrandomfile":"true","raw_trial_id":"18"}|1|1|19|1|0|true|shoppinglist|shoppinglist.zip|set29_4.csv|2|cooking spray|9.48|9.48|.|0|full|{"GameEngine.js":"61fa031fc10c8d55d04ff952c4d14db9","Tools.js":"ca63e8aeadad3fb000f03128ed0b5770","GList.js":"48afd19d16e1f6eb786bf1d1d62f50a7","KTime.js":"875c9b3225ef5e83b5e6e0ba905a448b","ErrorMan.js":"539cd2c30aa2b5609ee615a040cdbca6","GImage.js":"8a31b421f899c53c1d76057f7aa35dc3","GColor.js":"3f152bebb4545bcef5d255a594dc52e2","shoppinglist.js":"8a3b5dcc2bdc2bc8acc0a9894ef46f80","Entity.js":"7c10dc4ffd31c005841e1db7e3377467","KPosition.js":"a07b31f37c9cb1fa49a6b47bff376522","KAlpha.js":"fdac535470841697614a578b451f6d35","Sprite.js":"cd811fc36d62ac5077fddf578c118bcf","GBox.js":"9c44756dbeb2733973b0bc3ec7784187","GButton.js":"00f4640559587f3c523855146abe359c","GImage_Create.js":"ed2f46cfb944c53b9748d57bd8481fea","Trial.js":"5e17378605edc262bc52c899f9c4eb60","ZipReader.js":"c32b070eee4998f1adb1f0fedd3f2855","KFile.js":"a6da0cef6d8e04cb10100c880f917c99","KReader.js":"6885e0e1596e237d5ef5b0ec7e4427b3","KWriter.js":"99db3ce49718bf32dc2063252e2cdc25","shoppinglist_tools.js":"146e4ef708dff75052eb2d3c235c1687","shoppinglist.json":"be34afe4e9ba0fa3130b579eda40aff6","GameRunner.js":"65a5ea6a604c5d21b86468ee7fea326c","KTrigger.js":"19f22b68f33519aece7c52a0f8ae3e37","GMap.js":"6f664b3e3d5cef53b028ecbddde836b6","GameParams.js":"51e7eece2f2f5c7486f3c24306bd629e"}|{"":"-1"}|.|2.68|894
Shopping List|Shopping List|script|c90a79a85b102cb0cb7a0fb3f3cda6b9|9999|e6d68b71-8792-4c21-bf72-5c6412439518|2|9c69cf4a-94f1-44ab-8185-73fe7f509973|2021/04/08 14:39:24|0c3035e3-2d8f-4098-9b62-c4047ea2b7ff|60.01984126984127|59.02777777777778|android|1509.0MB|27.626545925818434|{"type":"script","script":"shoppinglist","instructions":"quick_instructions","zipfile":"shoppinglist.zip","listselect":"random","defval_survey_pack_id":"SQF_ISS","usefile":"set29_4.csv","usedrandomfile":"true","raw_trial_id":"19"}|1|1|20|1|0|true|shoppinglist|shoppinglist.zip|set29_4.csv|2|salad|4.21|1.46|.|0|full|{"GameEngine.js":"61fa031fc10c8d55d04ff952c4d14db9","Tools.js":"ca63e8aeadad3fb000f03128ed0b5770","GList.js":"48afd19d16e1f6eb786bf1d1d62f50a7","KTime.js":"875c9b3225ef5e83b5e6e0ba905a448b","ErrorMan.js":"539cd2c30aa2b5609ee615a040cdbca6","GImage.js":"8a31b421f899c53c1d76057f7aa35dc3","GColor.js":"3f152bebb4545bcef5d255a594dc52e2","shoppinglist.js":"8a3b5dcc2bdc2bc8acc0a9894ef46f80","Entity.js":"7c10dc4ffd31c005841e1db7e3377467","KPosition.js":"a07b31f37c9cb1fa49a6b47bff376522","KAlpha.js":"fdac535470841697614a578b451f6d35","Sprite.js":"cd811fc36d62ac5077fddf578c118bcf","GBox.js":"9c44756dbeb2733973b0bc3ec7784187","GButton.js":"00f4640559587f3c523855146abe359c","GImage_Create.js":"ed2f46cfb944c53b9748d57bd8481fea","Trial.js":"5e17378605edc262bc52c899f9c4eb60","ZipReader.js":"c32b070eee4998f1adb1f0fedd3f2855","KFile.js":"a6da0cef6d8e04cb10100c880f917c99","KReader.js":"6885e0e1596e237d5ef5b0ec7e4427b3","KWriter.js":"99db3ce49718bf32dc2063252e2cdc25","shoppinglist_tools.js":"146e4ef708dff75052eb2d3c235c1687","shoppinglist.json":"be34afe4e9ba0fa3130b579eda40aff6","GameRunner.js":"65a5ea6a604c5d21b86468ee7fea326c","KTrigger.js":"19f22b68f33519aece7c52a0f8ae3e37","GMap.js":"6f664b3e3d5cef53b028ecbddde836b6","GameParams.js":"51e7eece2f2f5c7486f3c24306bd629e"}|{"":"-1"}|.|1.46|930
Shopping List|Shopping List|script|e31e0d64c3a0e6949e5e35c02a7b4d26|9999|37578056-1492-47ea-b047-2340ff3ccc4f|1|668a7da7-583c-449e-8084-eb5089e028a9|2021/03/23 16:02:15|a965f4bb-0585-45b8-bd6b-ee80f824c6de|60.31613976705491|60.31613976705491|android|799.0MB|44.33656607483963|{"type":"script","script":"shoppinglist","instructions":"quick_instructions","zipfile":"shoppinglist.zip","listselect":"random","defval_survey_pack_id":"demo_survey1","usefile":"set25_1.csv","usedrandomfile":"true","raw_trial_id":"0"}|1|1|1|1|0|true|shoppinglist|shoppinglist.zip|set25_1.csv|1|cheeseburger|3.94|no|1084|0|full|{"GameEngine.js":"61fa031fc10c8d55d04ff952c4d14db9","Tools.js":"ca63e8aeadad3fb000f03128ed0b5770","GList.js":"48afd19d16e1f6eb786bf1d1d62f50a7","KTime.js":"875c9b3225ef5e83b5e6e0ba905a448b","ErrorMan.js":"539cd2c30aa2b5609ee615a040cdbca6","GImage.js":"8a31b421f899c53c1d76057f7aa35dc3","GColor.js":"3f152bebb4545bcef5d255a594dc52e2","shoppinglist.js":"8a3b5dcc2bdc2bc8acc0a9894ef46f80","Entity.js":"7c10dc4ffd31c005841e1db7e3377467","KPosition.js":"a07b31f37c9cb1fa49a6b47bff376522","KAlpha.js":"fdac535470841697614a578b451f6d35","Sprite.js":"cd811fc36d62ac5077fddf578c118bcf","GBox.js":"9c44756dbeb2733973b0bc3ec7784187","GButton.js":"00f4640559587f3c523855146abe359c","GImage_Create.js":"ed2f46cfb944c53b9748d57bd8481fea","Trial.js":"5e17378605edc262bc52c899f9c4eb60","ZipReader.js":"c32b070eee4998f1adb1f0fedd3f2855","KFile.js":"a6da0cef6d8e04cb10100c880f917c99","KReader.js":"6885e0e1596e237d5ef5b0ec7e4427b3","KWriter.js":"99db3ce49718bf32dc2063252e2cdc25","shoppinglist_tools.js":"146e4ef708dff75052eb2d3c235c1687","shoppinglist.json":"60f1fc63a7dfdb5ed248d6a16a1f09f8","GameRunner.js":"65a5ea6a604c5d21b86468ee7fea326c","KTrigger.js":"19f22b68f33519aece7c52a0f8ae3e37","GMap.js":"6f664b3e3d5cef53b028ecbddde836b6","GameParams.js":"51e7eece2f2f5c7486f3c24306bd629e"}|{"":"-1"}|.|.|.
Shopping List|Shopping List|script|e31e0d64c3a0e6949e5e35c02a7b4d26|9999|37578056-1492-47ea-b047-2340ff3ccc4f|1|668a7da7-583c-449e-8084-eb5089e028a9|2021/03/23 16:02:17|4515cd4b-c908-4494-b036-5d213387ba49|60.281964025279535|60.281964025279535|android|798.0MB|44.28891959439851|{"type":"script","script":"shoppinglist","instructions":"quick_instructions","zipfile":"shoppinglist.zip","listselect":"random","defval_survey_pack_id":"demo_survey1","usefile":"set25_1.csv","usedrandomfile":"true","raw_trial_id":"1"}|1|1|2|1|0|true|shoppinglist|shoppinglist.zip|set25_1.csv|1|plastic wrap|8.39|no|760|0|full|{"GameEngine.js":"61fa031fc10c8d55d04ff952c4d14db9","Tools.js":"ca63e8aeadad3fb000f03128ed0b5770","GList.js":"48afd19d16e1f6eb786bf1d1d62f50a7","KTime.js":"875c9b3225ef5e83b5e6e0ba905a448b","ErrorMan.js":"539cd2c30aa2b5609ee615a040cdbca6","GImage.js":"8a31b421f899c53c1d76057f7aa35dc3","GColor.js":"3f152bebb4545bcef5d255a594dc52e2","shoppinglist.js":"8a3b5dcc2bdc2bc8acc0a9894ef46f80","Entity.js":"7c10dc4ffd31c005841e1db7e3377467","KPosition.js":"a07b31f37c9cb1fa49a6b47bff376522","KAlpha.js":"fdac535470841697614a578b451f6d35","Sprite.js":"cd811fc36d62ac5077fddf578c118bcf","GBox.js":"9c44756dbeb2733973b0bc3ec7784187","GButton.js":"00f4640559587f3c523855146abe359c","GImage_Create.js":"ed2f46cfb944c53b9748d57bd8481fea","Trial.js":"5e17378605edc262bc52c899f9c4eb60","ZipReader.js":"c32b070eee4998f1adb1f0fedd3f2855","KFile.js":"a6da0cef6d8e04cb10100c880f917c99","KReader.js":"6885e0e1596e237d5ef5b0ec7e4427b3","KWriter.js":"99db3ce49718bf32dc2063252e2cdc25","shoppinglist_tools.js":"146e4ef708dff75052eb2d3c235c1687","shoppinglist.json":"60f1fc63a7dfdb5ed248d6a16a1f09f8","GameRunner.js":"65a5ea6a604c5d21b86468ee7fea326c","KTrigger.js":"19f22b68f33519aece7c52a0f8ae3e37","GMap.js":"6f664b3e3d5cef53b028ecbddde836b6","GameParams.js":"51e7eece2f2f5c7486f3c24306bd629e"}|{"":"-1"}|.|.|.
Shopping List|Shopping List|script|e31e0d64c3a0e6949e5e35c02a7b4d26|9999|37578056-1492-47ea-b047-2340ff3ccc4f|1|668a7da7-583c-449e-8084-eb5089e028a9|2021/03/23 16:02:19|77294f08-d090-4b57-a93a-0c6198a71e40|60.28708133971292|60.28708133971292|android|798.0MB|44.24928638566794|{"type":"script","script":"shoppinglist","instructions":"quick_instructions","zipfile":"shoppinglist.zip","listselect":"random","defval_survey_pack_id":"demo_survey1","usefile":"set25_1.csv","usedrandomfile":"true","raw_trial_id":"2"}|1|1|3|1|0|true|shoppinglist|shoppinglist.zip|set25_1.csv|1|salad|5.91|no|783|0|full|{"GameEngine.js":"61fa031fc10c8d55d04ff952c4d14db9","Tools.js":"ca63e8aeadad3fb000f03128ed0b5770","GList.js":"48afd19d16e1f6eb786bf1d1d62f50a7","KTime.js":"875c9b3225ef5e83b5e6e0ba905a448b","ErrorMan.js":"539cd2c30aa2b5609ee615a040cdbca6","GImage.js":"8a31b421f899c53c1d76057f7aa35dc3","GColor.js":"3f152bebb4545bcef5d255a594dc52e2","shoppinglist.js":"8a3b5dcc2bdc2bc8acc0a9894ef46f80","Entity.js":"7c10dc4ffd31c005841e1db7e3377467","KPosition.js":"a07b31f37c9cb1fa49a6b47bff376522","KAlpha.js":"fdac535470841697614a578b451f6d35","Sprite.js":"cd811fc36d62ac5077fddf578c118bcf","GBox.js":"9c44756dbeb2733973b0bc3ec7784187","GButton.js":"00f4640559587f3c523855146abe359c","GImage_Create.js":"ed2f46cfb944c53b9748d57bd8481fea","Trial.js":"5e17378605edc262bc52c899f9c4eb60","ZipReader.js":"c32b070eee4998f1adb1f0fedd3f2855","KFile.js":"a6da0cef6d8e04cb10100c880f917c99","KReader.js":"6885e0e1596e237d5ef5b0ec7e4427b3","KWriter.js":"99db3ce49718bf32dc2063252e2cdc25","shoppinglist_tools.js":"146e4ef708dff75052eb2d3c235c1687","shoppinglist.json":"60f1fc63a7dfdb5ed248d6a16a1f09f8","GameRunner.js":"65a5ea6a604c5d21b86468ee7fea326c","KTrigger.js":"19f22b68f33519aece7c52a0f8ae3e37","GMap.js":"6f664b3e3d5cef53b028ecbddde836b6","GameParams.js":"51e7eece2f2f5c7486f3c24306bd629e"}|{"":"-1"}|.|.|.
