cogtask_name|cogtask_display_name|cogtask_type|cogtask_all_params_checksum|participant_id|cogtask_run_uuid|session_id|session_uuid|time_stamp|trial_uuid|cogtask_fps|cogtask_cps|os|mem_free_total|mem_free_perc|cogtask_trial_params|block_id|trialset_id|trial_num|block_num|block_trial_num|is_script|cogtask_script|aFixTime|tFixTime|aStudyTime|tStudyTime|selection|study_number|trialType|leftCorrect|response_time|accuracy|script_checksum|cogtask_resource_checksum|cogtask_error|trialTarget|trialDistractor|Fixation_Time|trial_type|trial_sequence|target_answer|trial_distractor|RT|target_answer_location|
stroop|stroop|script|60498ba3034877988dce71760273bb3c|9999|f84961f5-1fe0-42be-bb6e-3d6e158e5558|6|6e3f3a54-96cc-406b-8cad-60d3f7c05675|2021/10/05 15:09:40|63bb038e-c314-46cc-833d-88eed65e18b0|46.372067648663396|46.372067648663396|ios|NA|NA|{"leftcorrect":"1","script":"stroop","instructions":"full_instructions","trialnum":"10","practice":"no","studytime":"3000","leftcorrectperc":"50","type":"script","startdelay":"1000","trialtype":"0"}|1|0|1|1|0|true|stroop|810|800|0|3000|1|1|incong|no|958|1|{"GMap.js":"7bf21ec7ecf4ce0725fd9dea6b56c106","KTime.js":"ba6fc878b489aaefa35702ebc8f3d103","stroop.js":"1656ef3fd4ea74440d22f87200f0bb26","Entity.js":"28a8361005a6db76408dcc5af9403483","KFile.js":"d8e5c4e82ac859b480024783617e8f57","Sprite.js":"c44178584e0bb6d9d474687c6b538f43","GImage_Create.js":"22e584eef1a96a36e101a6ea758d54a3","GBox.js":"addf6567a2dd4e0b967395c1733dce04","ErrorMan.js":"16f2928a391f50cf7b4490f302d3ff3f","KPosition.js":"13ae0a9b307740c9c93598bd0c683aa6","KWriter.js":"d9315c7c0596d7757e962ad67bbbf722","Tools.js":"6c811a0fbb6f459fbd564b4788745f51","iosScriptHelper.js":"3c70f9d2aa7011e89f530fb689aae7e3","GameRunner.js":"33f18fd874a180504eaee08fce10d152","GameParams.js":"eb1f2af97c8844ca1042d3d695139dfd","KAlpha.js":"6648736ab78d6600002ef4d6411270aa","GColor.js":"10d65f23c815938f3191d18ec16dc2ac","GList.js":"f59017e34743ec832f2ab4f5db57d10c","GButton.js":"62d972835a2f3952a212ebe917507fe3","GameEngine.js":"0c094384a8de4afa9861019fe247a550","Trial.js":"0a7180ddb548b09c7096d6066af9b3d4","ZipReader.js":"d7aa55d618c22498e786a4b32b05cdd0","GImage.js":"d93ca0496bdb3b9a6f15bdbd34db60ba","KReader.js":"f5a263bf4863aea23517f917fd969ddf","KTrigger.js":"5aeae1774d04509ab24cb9d08d0fa01d"}|{}|.|.|.|.|.|.|.|.|.|.
stroop|stroop|script|60498ba3034877988dce71760273bb3c|9999|f84961f5-1fe0-42be-bb6e-3d6e158e5558|6|6e3f3a54-96cc-406b-8cad-60d3f7c05675|2021/10/05 15:09:41|b66c0871-72d4-46f0-a94c-deb783eaece8|59.873344847438105|59.873344847438105|ios|NA|NA|{"leftcorrectperc":"50","startdelay":"1000","script":"stroop","practice":"no","trialtype":"0","trialnum":"10","type":"script","instructions":"full_instructions","leftcorrect":"1","studytime":"3000"}|1|0|2|1|0|true|stroop|714|700|0|3000|1|4|incong|no|958|1|{"GMap.js":"7bf21ec7ecf4ce0725fd9dea6b56c106","KTime.js":"ba6fc878b489aaefa35702ebc8f3d103","stroop.js":"1656ef3fd4ea74440d22f87200f0bb26","Entity.js":"28a8361005a6db76408dcc5af9403483","KFile.js":"d8e5c4e82ac859b480024783617e8f57","Sprite.js":"c44178584e0bb6d9d474687c6b538f43","GImage_Create.js":"22e584eef1a96a36e101a6ea758d54a3","GBox.js":"addf6567a2dd4e0b967395c1733dce04","ErrorMan.js":"16f2928a391f50cf7b4490f302d3ff3f","KPosition.js":"13ae0a9b307740c9c93598bd0c683aa6","KWriter.js":"d9315c7c0596d7757e962ad67bbbf722","Tools.js":"6c811a0fbb6f459fbd564b4788745f51","iosScriptHelper.js":"3c70f9d2aa7011e89f530fb689aae7e3","GameRunner.js":"33f18fd874a180504eaee08fce10d152","GameParams.js":"eb1f2af97c8844ca1042d3d695139dfd","KAlpha.js":"6648736ab78d6600002ef4d6411270aa","GColor.js":"10d65f23c815938f3191d18ec16dc2ac","GList.js":"f59017e34743ec832f2ab4f5db57d10c","GButton.js":"62d972835a2f3952a212ebe917507fe3","GameEngine.js":"0c094384a8de4afa9861019fe247a550","Trial.js":"0a7180ddb548b09c7096d6066af9b3d4","ZipReader.js":"d7aa55d618c22498e786a4b32b05cdd0","GImage.js":"d93ca0496bdb3b9a6f15bdbd34db60ba","KReader.js":"f5a263bf4863aea23517f917fd969ddf","KTrigger.js":"5aeae1774d04509ab24cb9d08d0fa01d"}|{}|.|.|.|.|.|.|.|.|.|.
stroop|stroop|script|60498ba3034877988dce71760273bb3c|9999|f84961f5-1fe0-42be-bb6e-3d6e158e5558|6|6e3f3a54-96cc-406b-8cad-60d3f7c05675|2021/10/05 15:09:43|6f98844c-e4ba-4d5b-89ed-67677baf452c|59.818731117824775|59.818731117824775|ios|NA|NA|{"type":"script","trialnum":"10","studytime":"3000","leftcorrect":"0","script":"stroop","trialtype":"1","leftcorrectperc":"50","instructions":"full_instructions","practice":"no","startdelay":"1000"}|1|0|3|1|0|true|stroop|515|500|0|3000|0|0|cong|yes|1084|1|{"GMap.js":"7bf21ec7ecf4ce0725fd9dea6b56c106","KTime.js":"ba6fc878b489aaefa35702ebc8f3d103","stroop.js":"1656ef3fd4ea74440d22f87200f0bb26","Entity.js":"28a8361005a6db76408dcc5af9403483","KFile.js":"d8e5c4e82ac859b480024783617e8f57","Sprite.js":"c44178584e0bb6d9d474687c6b538f43","GImage_Create.js":"22e584eef1a96a36e101a6ea758d54a3","GBox.js":"addf6567a2dd4e0b967395c1733dce04","ErrorMan.js":"16f2928a391f50cf7b4490f302d3ff3f","KPosition.js":"13ae0a9b307740c9c93598bd0c683aa6","KWriter.js":"d9315c7c0596d7757e962ad67bbbf722","Tools.js":"6c811a0fbb6f459fbd564b4788745f51","iosScriptHelper.js":"3c70f9d2aa7011e89f530fb689aae7e3","GameRunner.js":"33f18fd874a180504eaee08fce10d152","GameParams.js":"eb1f2af97c8844ca1042d3d695139dfd","KAlpha.js":"6648736ab78d6600002ef4d6411270aa","GColor.js":"10d65f23c815938f3191d18ec16dc2ac","GList.js":"f59017e34743ec832f2ab4f5db57d10c","GButton.js":"62d972835a2f3952a212ebe917507fe3","GameEngine.js":"0c094384a8de4afa9861019fe247a550","Trial.js":"0a7180ddb548b09c7096d6066af9b3d4","ZipReader.js":"d7aa55d618c22498e786a4b32b05cdd0","GImage.js":"d93ca0496bdb3b9a6f15bdbd34db60ba","KReader.js":"f5a263bf4863aea23517f917fd969ddf","KTrigger.js":"5aeae1774d04509ab24cb9d08d0fa01d"}|{}|.|.|.|.|.|.|.|.|.|.
stroop|stroop|script|60498ba3034877988dce71760273bb3c|9999|f84961f5-1fe0-42be-bb6e-3d6e158e5558|6|6e3f3a54-96cc-406b-8cad-60d3f7c05675|2021/10/05 15:09:45|4616e26f-678e-4a16-ac1b-07e9feb1813f|59.820010587612494|59.820010587612494|ios|NA|NA|{"trialnum":"10","studytime":"3000","practice":"no","trialtype":"1","script":"stroop","instructions":"full_instructions","type":"script","leftcorrectperc":"50","leftcorrect":"0","startdelay":"1000"}|1|0|4|1|0|true|stroop|1000|1000|0|3000|0|2|cong|yes|834|1|{"GMap.js":"7bf21ec7ecf4ce0725fd9dea6b56c106","KTime.js":"ba6fc878b489aaefa35702ebc8f3d103","stroop.js":"1656ef3fd4ea74440d22f87200f0bb26","Entity.js":"28a8361005a6db76408dcc5af9403483","KFile.js":"d8e5c4e82ac859b480024783617e8f57","Sprite.js":"c44178584e0bb6d9d474687c6b538f43","GImage_Create.js":"22e584eef1a96a36e101a6ea758d54a3","GBox.js":"addf6567a2dd4e0b967395c1733dce04","ErrorMan.js":"16f2928a391f50cf7b4490f302d3ff3f","KPosition.js":"13ae0a9b307740c9c93598bd0c683aa6","KWriter.js":"d9315c7c0596d7757e962ad67bbbf722","Tools.js":"6c811a0fbb6f459fbd564b4788745f51","iosScriptHelper.js":"3c70f9d2aa7011e89f530fb689aae7e3","GameRunner.js":"33f18fd874a180504eaee08fce10d152","GameParams.js":"eb1f2af97c8844ca1042d3d695139dfd","KAlpha.js":"6648736ab78d6600002ef4d6411270aa","GColor.js":"10d65f23c815938f3191d18ec16dc2ac","GList.js":"f59017e34743ec832f2ab4f5db57d10c","GButton.js":"62d972835a2f3952a212ebe917507fe3","GameEngine.js":"0c094384a8de4afa9861019fe247a550","Trial.js":"0a7180ddb548b09c7096d6066af9b3d4","ZipReader.js":"d7aa55d618c22498e786a4b32b05cdd0","GImage.js":"d93ca0496bdb3b9a6f15bdbd34db60ba","KReader.js":"f5a263bf4863aea23517f917fd969ddf","KTrigger.js":"5aeae1774d04509ab24cb9d08d0fa01d"}|{}|.|.|.|.|.|.|.|.|.|.
stroop|stroop|script|60498ba3034877988dce71760273bb3c|9999|f84961f5-1fe0-42be-bb6e-3d6e158e5558|6|6e3f3a54-96cc-406b-8cad-60d3f7c05675|2021/10/05 15:09:46|7ccfaeb5-88d2-4466-8d39-9749f37694a6|59.87170349251603|59.87170349251603|ios|NA|NA|{"type":"script","trialtype":"1","leftcorrectperc":"50","startdelay":"1000","practice":"no","studytime":"3000","instructions":"full_instructions","leftcorrect":"1","trialnum":"10","script":"stroop"}|1|0|5|1|0|true|stroop|615|600|0|3000|1|3|cong|no|726|1|{"GMap.js":"7bf21ec7ecf4ce0725fd9dea6b56c106","KTime.js":"ba6fc878b489aaefa35702ebc8f3d103","stroop.js":"1656ef3fd4ea74440d22f87200f0bb26","Entity.js":"28a8361005a6db76408dcc5af9403483","KFile.js":"d8e5c4e82ac859b480024783617e8f57","Sprite.js":"c44178584e0bb6d9d474687c6b538f43","GImage_Create.js":"22e584eef1a96a36e101a6ea758d54a3","GBox.js":"addf6567a2dd4e0b967395c1733dce04","ErrorMan.js":"16f2928a391f50cf7b4490f302d3ff3f","KPosition.js":"13ae0a9b307740c9c93598bd0c683aa6","KWriter.js":"d9315c7c0596d7757e962ad67bbbf722","Tools.js":"6c811a0fbb6f459fbd564b4788745f51","iosScriptHelper.js":"3c70f9d2aa7011e89f530fb689aae7e3","GameRunner.js":"33f18fd874a180504eaee08fce10d152","GameParams.js":"eb1f2af97c8844ca1042d3d695139dfd","KAlpha.js":"6648736ab78d6600002ef4d6411270aa","GColor.js":"10d65f23c815938f3191d18ec16dc2ac","GList.js":"f59017e34743ec832f2ab4f5db57d10c","GButton.js":"62d972835a2f3952a212ebe917507fe3","GameEngine.js":"0c094384a8de4afa9861019fe247a550","Trial.js":"0a7180ddb548b09c7096d6066af9b3d4","ZipReader.js":"d7aa55d618c22498e786a4b32b05cdd0","GImage.js":"d93ca0496bdb3b9a6f15bdbd34db60ba","KReader.js":"f5a263bf4863aea23517f917fd969ddf","KTrigger.js":"5aeae1774d04509ab24cb9d08d0fa01d"}|{}|.|.|.|.|.|.|.|.|.|.
stroop|stroop|script|60498ba3034877988dce71760273bb3c|9999|f84961f5-1fe0-42be-bb6e-3d6e158e5558|6|6e3f3a54-96cc-406b-8cad-60d3f7c05675|2021/10/05 15:09:48|9fe62df9-7d90-4673-9867-0256385b088d|59.840425531914896|59.840425531914896|ios|NA|NA|{"startdelay":"1000","studytime":"3000","instructions":"full_instructions","trialnum":"10","leftcorrectperc":"50","leftcorrect":"0","type":"script","practice":"no","script":"stroop","trialtype":"0"}|1|0|6|1|0|true|stroop|515|500|0|3000|0|1|incong|yes|930|1|{"GMap.js":"7bf21ec7ecf4ce0725fd9dea6b56c106","KTime.js":"ba6fc878b489aaefa35702ebc8f3d103","stroop.js":"1656ef3fd4ea74440d22f87200f0bb26","Entity.js":"28a8361005a6db76408dcc5af9403483","KFile.js":"d8e5c4e82ac859b480024783617e8f57","Sprite.js":"c44178584e0bb6d9d474687c6b538f43","GImage_Create.js":"22e584eef1a96a36e101a6ea758d54a3","GBox.js":"addf6567a2dd4e0b967395c1733dce04","ErrorMan.js":"16f2928a391f50cf7b4490f302d3ff3f","KPosition.js":"13ae0a9b307740c9c93598bd0c683aa6","KWriter.js":"d9315c7c0596d7757e962ad67bbbf722","Tools.js":"6c811a0fbb6f459fbd564b4788745f51","iosScriptHelper.js":"3c70f9d2aa7011e89f530fb689aae7e3","GameRunner.js":"33f18fd874a180504eaee08fce10d152","GameParams.js":"eb1f2af97c8844ca1042d3d695139dfd","KAlpha.js":"6648736ab78d6600002ef4d6411270aa","GColor.js":"10d65f23c815938f3191d18ec16dc2ac","GList.js":"f59017e34743ec832f2ab4f5db57d10c","GButton.js":"62d972835a2f3952a212ebe917507fe3","GameEngine.js":"0c094384a8de4afa9861019fe247a550","Trial.js":"0a7180ddb548b09c7096d6066af9b3d4","ZipReader.js":"d7aa55d618c22498e786a4b32b05cdd0","GImage.js":"d93ca0496bdb3b9a6f15bdbd34db60ba","KReader.js":"f5a263bf4863aea23517f917fd969ddf","KTrigger.js":"5aeae1774d04509ab24cb9d08d0fa01d"}|{}|.|.|.|.|.|.|.|.|.|.
stroop|stroop|script|60498ba3034877988dce71760273bb3c|9999|f84961f5-1fe0-42be-bb6e-3d6e158e5558|6|6e3f3a54-96cc-406b-8cad-60d3f7c05675|2021/10/05 15:09:50|c4dc9832-f4c0-456a-b8d1-40d93ff847f9|59.86261040235526|59.86261040235526|ios|NA|NA|{"script":"stroop","startdelay":"1000","instructions":"full_instructions","practice":"no","type":"script","studytime":"3000","trialtype":"0","leftcorrectperc":"50","leftcorrect":"0","trialnum":"10"}|1|0|7|1|0|true|stroop|816|800|0|3000|0|4|incong|yes|1162|1|{"GMap.js":"7bf21ec7ecf4ce0725fd9dea6b56c106","KTime.js":"ba6fc878b489aaefa35702ebc8f3d103","stroop.js":"1656ef3fd4ea74440d22f87200f0bb26","Entity.js":"28a8361005a6db76408dcc5af9403483","KFile.js":"d8e5c4e82ac859b480024783617e8f57","Sprite.js":"c44178584e0bb6d9d474687c6b538f43","GImage_Create.js":"22e584eef1a96a36e101a6ea758d54a3","GBox.js":"addf6567a2dd4e0b967395c1733dce04","ErrorMan.js":"16f2928a391f50cf7b4490f302d3ff3f","KPosition.js":"13ae0a9b307740c9c93598bd0c683aa6","KWriter.js":"d9315c7c0596d7757e962ad67bbbf722","Tools.js":"6c811a0fbb6f459fbd564b4788745f51","iosScriptHelper.js":"3c70f9d2aa7011e89f530fb689aae7e3","GameRunner.js":"33f18fd874a180504eaee08fce10d152","GameParams.js":"eb1f2af97c8844ca1042d3d695139dfd","KAlpha.js":"6648736ab78d6600002ef4d6411270aa","GColor.js":"10d65f23c815938f3191d18ec16dc2ac","GList.js":"f59017e34743ec832f2ab4f5db57d10c","GButton.js":"62d972835a2f3952a212ebe917507fe3","GameEngine.js":"0c094384a8de4afa9861019fe247a550","Trial.js":"0a7180ddb548b09c7096d6066af9b3d4","ZipReader.js":"d7aa55d618c22498e786a4b32b05cdd0","GImage.js":"d93ca0496bdb3b9a6f15bdbd34db60ba","KReader.js":"f5a263bf4863aea23517f917fd969ddf","KTrigger.js":"5aeae1774d04509ab24cb9d08d0fa01d"}|{}|.|.|.|.|.|.|.|.|.|.
stroop|stroop|script|60498ba3034877988dce71760273bb3c|9999|f84961f5-1fe0-42be-bb6e-3d6e158e5558|6|6e3f3a54-96cc-406b-8cad-60d3f7c05675|2021/10/05 15:09:51|adf6ab8f-93b8-4a05-9077-0e9583e95978|59.82905982905983|59.82905982905983|ios|NA|NA|{"startdelay":"1000","leftcorrect":"0","leftcorrectperc":"50","practice":"no","instructions":"full_instructions","studytime":"3000","type":"script","script":"stroop","trialnum":"10","trialtype":"1"}|1|0|8|1|0|true|stroop|616|600|0|3000|0|1|cong|yes|727|1|{"GMap.js":"7bf21ec7ecf4ce0725fd9dea6b56c106","KTime.js":"ba6fc878b489aaefa35702ebc8f3d103","stroop.js":"1656ef3fd4ea74440d22f87200f0bb26","Entity.js":"28a8361005a6db76408dcc5af9403483","KFile.js":"d8e5c4e82ac859b480024783617e8f57","Sprite.js":"c44178584e0bb6d9d474687c6b538f43","GImage_Create.js":"22e584eef1a96a36e101a6ea758d54a3","GBox.js":"addf6567a2dd4e0b967395c1733dce04","ErrorMan.js":"16f2928a391f50cf7b4490f302d3ff3f","KPosition.js":"13ae0a9b307740c9c93598bd0c683aa6","KWriter.js":"d9315c7c0596d7757e962ad67bbbf722","Tools.js":"6c811a0fbb6f459fbd564b4788745f51","iosScriptHelper.js":"3c70f9d2aa7011e89f530fb689aae7e3","GameRunner.js":"33f18fd874a180504eaee08fce10d152","GameParams.js":"eb1f2af97c8844ca1042d3d695139dfd","KAlpha.js":"6648736ab78d6600002ef4d6411270aa","GColor.js":"10d65f23c815938f3191d18ec16dc2ac","GList.js":"f59017e34743ec832f2ab4f5db57d10c","GButton.js":"62d972835a2f3952a212ebe917507fe3","GameEngine.js":"0c094384a8de4afa9861019fe247a550","Trial.js":"0a7180ddb548b09c7096d6066af9b3d4","ZipReader.js":"d7aa55d618c22498e786a4b32b05cdd0","GImage.js":"d93ca0496bdb3b9a6f15bdbd34db60ba","KReader.js":"f5a263bf4863aea23517f917fd969ddf","KTrigger.js":"5aeae1774d04509ab24cb9d08d0fa01d"}|{}|.|.|.|.|.|.|.|.|.|.
stroop|stroop|script|60498ba3034877988dce71760273bb3c|9999|f84961f5-1fe0-42be-bb6e-3d6e158e5558|6|6e3f3a54-96cc-406b-8cad-60d3f7c05675|2021/10/05 15:09:53|ec80c930-a55d-4ed9-a530-5e2a734a435a|59.738643434972|59.738643434972|ios|NA|NA|{"script":"stroop","startdelay":"1000","instructions":"full_instructions","practice":"no","type":"script","studytime":"3000","trialtype":"1","leftcorrectperc":"50","leftcorrect":"1","trialnum":"10"}|1|0|9|1|0|true|stroop|816|800|0|3000|1|5|cong|no|734|1|{"GMap.js":"7bf21ec7ecf4ce0725fd9dea6b56c106","KTime.js":"ba6fc878b489aaefa35702ebc8f3d103","stroop.js":"1656ef3fd4ea74440d22f87200f0bb26","Entity.js":"28a8361005a6db76408dcc5af9403483","KFile.js":"d8e5c4e82ac859b480024783617e8f57","Sprite.js":"c44178584e0bb6d9d474687c6b538f43","GImage_Create.js":"22e584eef1a96a36e101a6ea758d54a3","GBox.js":"addf6567a2dd4e0b967395c1733dce04","ErrorMan.js":"16f2928a391f50cf7b4490f302d3ff3f","KPosition.js":"13ae0a9b307740c9c93598bd0c683aa6","KWriter.js":"d9315c7c0596d7757e962ad67bbbf722","Tools.js":"6c811a0fbb6f459fbd564b4788745f51","iosScriptHelper.js":"3c70f9d2aa7011e89f530fb689aae7e3","GameRunner.js":"33f18fd874a180504eaee08fce10d152","GameParams.js":"eb1f2af97c8844ca1042d3d695139dfd","KAlpha.js":"6648736ab78d6600002ef4d6411270aa","GColor.js":"10d65f23c815938f3191d18ec16dc2ac","GList.js":"f59017e34743ec832f2ab4f5db57d10c","GButton.js":"62d972835a2f3952a212ebe917507fe3","GameEngine.js":"0c094384a8de4afa9861019fe247a550","Trial.js":"0a7180ddb548b09c7096d6066af9b3d4","ZipReader.js":"d7aa55d618c22498e786a4b32b05cdd0","GImage.js":"d93ca0496bdb3b9a6f15bdbd34db60ba","KReader.js":"f5a263bf4863aea23517f917fd969ddf","KTrigger.js":"5aeae1774d04509ab24cb9d08d0fa01d"}|{}|.|.|.|.|.|.|.|.|.|.
stroop|stroop|script|60498ba3034877988dce71760273bb3c|9999|f84961f5-1fe0-42be-bb6e-3d6e158e5558|6|6e3f3a54-96cc-406b-8cad-60d3f7c05675|2021/10/05 15:09:55|bfadc33b-23ae-4de0-a697-4cf44826cd9e|59.765208110992525|59.765208110992525|ios|NA|NA|{"leftcorrectperc":"50","instructions":"full_instructions","type":"script","studytime":"3000","leftcorrect":"1","script":"stroop","trialtype":"0","trialnum":"10","practice":"no","startdelay":"1000"}|1|0|10|1|0|true|stroop|900|900|0|3000|0|1|incong|no|919|0|{"GMap.js":"7bf21ec7ecf4ce0725fd9dea6b56c106","KTime.js":"ba6fc878b489aaefa35702ebc8f3d103","stroop.js":"1656ef3fd4ea74440d22f87200f0bb26","Entity.js":"28a8361005a6db76408dcc5af9403483","KFile.js":"d8e5c4e82ac859b480024783617e8f57","Sprite.js":"c44178584e0bb6d9d474687c6b538f43","GImage_Create.js":"22e584eef1a96a36e101a6ea758d54a3","GBox.js":"addf6567a2dd4e0b967395c1733dce04","ErrorMan.js":"16f2928a391f50cf7b4490f302d3ff3f","KPosition.js":"13ae0a9b307740c9c93598bd0c683aa6","KWriter.js":"d9315c7c0596d7757e962ad67bbbf722","Tools.js":"6c811a0fbb6f459fbd564b4788745f51","iosScriptHelper.js":"3c70f9d2aa7011e89f530fb689aae7e3","GameRunner.js":"33f18fd874a180504eaee08fce10d152","GameParams.js":"eb1f2af97c8844ca1042d3d695139dfd","KAlpha.js":"6648736ab78d6600002ef4d6411270aa","GColor.js":"10d65f23c815938f3191d18ec16dc2ac","GList.js":"f59017e34743ec832f2ab4f5db57d10c","GButton.js":"62d972835a2f3952a212ebe917507fe3","GameEngine.js":"0c094384a8de4afa9861019fe247a550","Trial.js":"0a7180ddb548b09c7096d6066af9b3d4","ZipReader.js":"d7aa55d618c22498e786a4b32b05cdd0","GImage.js":"d93ca0496bdb3b9a6f15bdbd34db60ba","KReader.js":"f5a263bf4863aea23517f917fd969ddf","KTrigger.js":"5aeae1774d04509ab24cb9d08d0fa01d"}|{}|.|.|.|.|.|.|.|.|.|.
stroop|stroop|script|60498ba3034877988dce71760273bb3c|9999|f84961f5-1fe0-42be-bb6e-3d6e158e5558|6|6e3f3a54-96cc-406b-8cad-60d3f7c05675|2021/10/05 15:09:40|63bb038e-c314-46cc-833d-88eed65e18b0|46.372067648663396|46.372067648663396|ios|NA|NA|{"leftcorrect":"1","script":"stroop","instructions":"full_instructions","trialnum":"10","practice":"no","studytime":"3000","leftcorrectperc":"50","type":"script","startdelay":"1000","trialtype":"0"}|1|0|1|1|0|true|stroop|810|800|0|3000|1|1|incong|no|958|1|{"GMap.js":"7bf21ec7ecf4ce0725fd9dea6b56c106","KTime.js":"ba6fc878b489aaefa35702ebc8f3d103","stroop.js":"1656ef3fd4ea74440d22f87200f0bb26","Entity.js":"28a8361005a6db76408dcc5af9403483","KFile.js":"d8e5c4e82ac859b480024783617e8f57","Sprite.js":"c44178584e0bb6d9d474687c6b538f43","GImage_Create.js":"22e584eef1a96a36e101a6ea758d54a3","GBox.js":"addf6567a2dd4e0b967395c1733dce04","ErrorMan.js":"16f2928a391f50cf7b4490f302d3ff3f","KPosition.js":"13ae0a9b307740c9c93598bd0c683aa6","KWriter.js":"d9315c7c0596d7757e962ad67bbbf722","Tools.js":"6c811a0fbb6f459fbd564b4788745f51","iosScriptHelper.js":"3c70f9d2aa7011e89f530fb689aae7e3","GameRunner.js":"33f18fd874a180504eaee08fce10d152","GameParams.js":"eb1f2af97c8844ca1042d3d695139dfd","KAlpha.js":"6648736ab78d6600002ef4d6411270aa","GColor.js":"10d65f23c815938f3191d18ec16dc2ac","GList.js":"f59017e34743ec832f2ab4f5db57d10c","GButton.js":"62d972835a2f3952a212ebe917507fe3","GameEngine.js":"0c094384a8de4afa9861019fe247a550","Trial.js":"0a7180ddb548b09c7096d6066af9b3d4","ZipReader.js":"d7aa55d618c22498e786a4b32b05cdd0","GImage.js":"d93ca0496bdb3b9a6f15bdbd34db60ba","KReader.js":"f5a263bf4863aea23517f917fd969ddf","KTrigger.js":"5aeae1774d04509ab24cb9d08d0fa01d"}|{}|.|.|.|.|.|.|.|.|.|.
stroop|stroop|script|60498ba3034877988dce71760273bb3c|9999|f84961f5-1fe0-42be-bb6e-3d6e158e5558|6|6e3f3a54-96cc-406b-8cad-60d3f7c05675|2021/10/05 15:09:41|b66c0871-72d4-46f0-a94c-deb783eaece8|59.873344847438105|59.873344847438105|ios|NA|NA|{"leftcorrectperc":"50","startdelay":"1000","script":"stroop","practice":"no","trialtype":"0","trialnum":"10","type":"script","instructions":"full_instructions","leftcorrect":"1","studytime":"3000"}|1|0|2|1|0|true|stroop|714|700|0|3000|1|4|incong|no|958|1|{"GMap.js":"7bf21ec7ecf4ce0725fd9dea6b56c106","KTime.js":"ba6fc878b489aaefa35702ebc8f3d103","stroop.js":"1656ef3fd4ea74440d22f87200f0bb26","Entity.js":"28a8361005a6db76408dcc5af9403483","KFile.js":"d8e5c4e82ac859b480024783617e8f57","Sprite.js":"c44178584e0bb6d9d474687c6b538f43","GImage_Create.js":"22e584eef1a96a36e101a6ea758d54a3","GBox.js":"addf6567a2dd4e0b967395c1733dce04","ErrorMan.js":"16f2928a391f50cf7b4490f302d3ff3f","KPosition.js":"13ae0a9b307740c9c93598bd0c683aa6","KWriter.js":"d9315c7c0596d7757e962ad67bbbf722","Tools.js":"6c811a0fbb6f459fbd564b4788745f51","iosScriptHelper.js":"3c70f9d2aa7011e89f530fb689aae7e3","GameRunner.js":"33f18fd874a180504eaee08fce10d152","GameParams.js":"eb1f2af97c8844ca1042d3d695139dfd","KAlpha.js":"6648736ab78d6600002ef4d6411270aa","GColor.js":"10d65f23c815938f3191d18ec16dc2ac","GList.js":"f59017e34743ec832f2ab4f5db57d10c","GButton.js":"62d972835a2f3952a212ebe917507fe3","GameEngine.js":"0c094384a8de4afa9861019fe247a550","Trial.js":"0a7180ddb548b09c7096d6066af9b3d4","ZipReader.js":"d7aa55d618c22498e786a4b32b05cdd0","GImage.js":"d93ca0496bdb3b9a6f15bdbd34db60ba","KReader.js":"f5a263bf4863aea23517f917fd969ddf","KTrigger.js":"5aeae1774d04509ab24cb9d08d0fa01d"}|{}|.|.|.|.|.|.|.|.|.|.
stroop|stroop|script|60498ba3034877988dce71760273bb3c|9999|f84961f5-1fe0-42be-bb6e-3d6e158e5558|6|6e3f3a54-96cc-406b-8cad-60d3f7c05675|2021/10/05 15:09:43|6f98844c-e4ba-4d5b-89ed-67677baf452c|59.818731117824775|59.818731117824775|ios|NA|NA|{"type":"script","trialnum":"10","studytime":"3000","leftcorrect":"0","script":"stroop","trialtype":"1","leftcorrectperc":"50","instructions":"full_instructions","practice":"no","startdelay":"1000"}|1|0|3|1|0|true|stroop|515|500|0|3000|0|0|cong|yes|1084|1|{"GMap.js":"7bf21ec7ecf4ce0725fd9dea6b56c106","KTime.js":"ba6fc878b489aaefa35702ebc8f3d103","stroop.js":"1656ef3fd4ea74440d22f87200f0bb26","Entity.js":"28a8361005a6db76408dcc5af9403483","KFile.js":"d8e5c4e82ac859b480024783617e8f57","Sprite.js":"c44178584e0bb6d9d474687c6b538f43","GImage_Create.js":"22e584eef1a96a36e101a6ea758d54a3","GBox.js":"addf6567a2dd4e0b967395c1733dce04","ErrorMan.js":"16f2928a391f50cf7b4490f302d3ff3f","KPosition.js":"13ae0a9b307740c9c93598bd0c683aa6","KWriter.js":"d9315c7c0596d7757e962ad67bbbf722","Tools.js":"6c811a0fbb6f459fbd564b4788745f51","iosScriptHelper.js":"3c70f9d2aa7011e89f530fb689aae7e3","GameRunner.js":"33f18fd874a180504eaee08fce10d152","GameParams.js":"eb1f2af97c8844ca1042d3d695139dfd","KAlpha.js":"6648736ab78d6600002ef4d6411270aa","GColor.js":"10d65f23c815938f3191d18ec16dc2ac","GList.js":"f59017e34743ec832f2ab4f5db57d10c","GButton.js":"62d972835a2f3952a212ebe917507fe3","GameEngine.js":"0c094384a8de4afa9861019fe247a550","Trial.js":"0a7180ddb548b09c7096d6066af9b3d4","ZipReader.js":"d7aa55d618c22498e786a4b32b05cdd0","GImage.js":"d93ca0496bdb3b9a6f15bdbd34db60ba","KReader.js":"f5a263bf4863aea23517f917fd969ddf","KTrigger.js":"5aeae1774d04509ab24cb9d08d0fa01d"}|{}|.|.|.|.|.|.|.|.|.|.
stroop|stroop|script|60498ba3034877988dce71760273bb3c|9999|f84961f5-1fe0-42be-bb6e-3d6e158e5558|6|6e3f3a54-96cc-406b-8cad-60d3f7c05675|2021/10/05 15:09:45|4616e26f-678e-4a16-ac1b-07e9feb1813f|59.820010587612494|59.820010587612494|ios|NA|NA|{"trialnum":"10","studytime":"3000","practice":"no","trialtype":"1","script":"stroop","instructions":"full_instructions","type":"script","leftcorrectperc":"50","leftcorrect":"0","startdelay":"1000"}|1|0|4|1|0|true|stroop|1000|1000|0|3000|0|2|cong|yes|834|1|{"GMap.js":"7bf21ec7ecf4ce0725fd9dea6b56c106","KTime.js":"ba6fc878b489aaefa35702ebc8f3d103","stroop.js":"1656ef3fd4ea74440d22f87200f0bb26","Entity.js":"28a8361005a6db76408dcc5af9403483","KFile.js":"d8e5c4e82ac859b480024783617e8f57","Sprite.js":"c44178584e0bb6d9d474687c6b538f43","GImage_Create.js":"22e584eef1a96a36e101a6ea758d54a3","GBox.js":"addf6567a2dd4e0b967395c1733dce04","ErrorMan.js":"16f2928a391f50cf7b4490f302d3ff3f","KPosition.js":"13ae0a9b307740c9c93598bd0c683aa6","KWriter.js":"d9315c7c0596d7757e962ad67bbbf722","Tools.js":"6c811a0fbb6f459fbd564b4788745f51","iosScriptHelper.js":"3c70f9d2aa7011e89f530fb689aae7e3","GameRunner.js":"33f18fd874a180504eaee08fce10d152","GameParams.js":"eb1f2af97c8844ca1042d3d695139dfd","KAlpha.js":"6648736ab78d6600002ef4d6411270aa","GColor.js":"10d65f23c815938f3191d18ec16dc2ac","GList.js":"f59017e34743ec832f2ab4f5db57d10c","GButton.js":"62d972835a2f3952a212ebe917507fe3","GameEngine.js":"0c094384a8de4afa9861019fe247a550","Trial.js":"0a7180ddb548b09c7096d6066af9b3d4","ZipReader.js":"d7aa55d618c22498e786a4b32b05cdd0","GImage.js":"d93ca0496bdb3b9a6f15bdbd34db60ba","KReader.js":"f5a263bf4863aea23517f917fd969ddf","KTrigger.js":"5aeae1774d04509ab24cb9d08d0fa01d"}|{}|.|.|.|.|.|.|.|.|.|.
stroop|stroop|script|60498ba3034877988dce71760273bb3c|9999|f84961f5-1fe0-42be-bb6e-3d6e158e5558|6|6e3f3a54-96cc-406b-8cad-60d3f7c05675|2021/10/05 15:09:46|7ccfaeb5-88d2-4466-8d39-9749f37694a6|59.87170349251603|59.87170349251603|ios|NA|NA|{"type":"script","trialtype":"1","leftcorrectperc":"50","startdelay":"1000","practice":"no","studytime":"3000","instructions":"full_instructions","leftcorrect":"1","trialnum":"10","script":"stroop"}|1|0|5|1|0|true|stroop|615|600|0|3000|1|3|cong|no|726|1|{"GMap.js":"7bf21ec7ecf4ce0725fd9dea6b56c106","KTime.js":"ba6fc878b489aaefa35702ebc8f3d103","stroop.js":"1656ef3fd4ea74440d22f87200f0bb26","Entity.js":"28a8361005a6db76408dcc5af9403483","KFile.js":"d8e5c4e82ac859b480024783617e8f57","Sprite.js":"c44178584e0bb6d9d474687c6b538f43","GImage_Create.js":"22e584eef1a96a36e101a6ea758d54a3","GBox.js":"addf6567a2dd4e0b967395c1733dce04","ErrorMan.js":"16f2928a391f50cf7b4490f302d3ff3f","KPosition.js":"13ae0a9b307740c9c93598bd0c683aa6","KWriter.js":"d9315c7c0596d7757e962ad67bbbf722","Tools.js":"6c811a0fbb6f459fbd564b4788745f51","iosScriptHelper.js":"3c70f9d2aa7011e89f530fb689aae7e3","GameRunner.js":"33f18fd874a180504eaee08fce10d152","GameParams.js":"eb1f2af97c8844ca1042d3d695139dfd","KAlpha.js":"6648736ab78d6600002ef4d6411270aa","GColor.js":"10d65f23c815938f3191d18ec16dc2ac","GList.js":"f59017e34743ec832f2ab4f5db57d10c","GButton.js":"62d972835a2f3952a212ebe917507fe3","GameEngine.js":"0c094384a8de4afa9861019fe247a550","Trial.js":"0a7180ddb548b09c7096d6066af9b3d4","ZipReader.js":"d7aa55d618c22498e786a4b32b05cdd0","GImage.js":"d93ca0496bdb3b9a6f15bdbd34db60ba","KReader.js":"f5a263bf4863aea23517f917fd969ddf","KTrigger.js":"5aeae1774d04509ab24cb9d08d0fa01d"}|{}|.|.|.|.|.|.|.|.|.|.
stroop|stroop|script|60498ba3034877988dce71760273bb3c|9999|f84961f5-1fe0-42be-bb6e-3d6e158e5558|6|6e3f3a54-96cc-406b-8cad-60d3f7c05675|2021/10/05 15:09:48|9fe62df9-7d90-4673-9867-0256385b088d|59.840425531914896|59.840425531914896|ios|NA|NA|{"startdelay":"1000","studytime":"3000","instructions":"full_instructions","trialnum":"10","leftcorrectperc":"50","leftcorrect":"0","type":"script","practice":"no","script":"stroop","trialtype":"0"}|1|0|6|1|0|true|stroop|515|500|0|3000|0|1|incong|yes|930|1|{"GMap.js":"7bf21ec7ecf4ce0725fd9dea6b56c106","KTime.js":"ba6fc878b489aaefa35702ebc8f3d103","stroop.js":"1656ef3fd4ea74440d22f87200f0bb26","Entity.js":"28a8361005a6db76408dcc5af9403483","KFile.js":"d8e5c4e82ac859b480024783617e8f57","Sprite.js":"c44178584e0bb6d9d474687c6b538f43","GImage_Create.js":"22e584eef1a96a36e101a6ea758d54a3","GBox.js":"addf6567a2dd4e0b967395c1733dce04","ErrorMan.js":"16f2928a391f50cf7b4490f302d3ff3f","KPosition.js":"13ae0a9b307740c9c93598bd0c683aa6","KWriter.js":"d9315c7c0596d7757e962ad67bbbf722","Tools.js":"6c811a0fbb6f459fbd564b4788745f51","iosScriptHelper.js":"3c70f9d2aa7011e89f530fb689aae7e3","GameRunner.js":"33f18fd874a180504eaee08fce10d152","GameParams.js":"eb1f2af97c8844ca1042d3d695139dfd","KAlpha.js":"6648736ab78d6600002ef4d6411270aa","GColor.js":"10d65f23c815938f3191d18ec16dc2ac","GList.js":"f59017e34743ec832f2ab4f5db57d10c","GButton.js":"62d972835a2f3952a212ebe917507fe3","GameEngine.js":"0c094384a8de4afa9861019fe247a550","Trial.js":"0a7180ddb548b09c7096d6066af9b3d4","ZipReader.js":"d7aa55d618c22498e786a4b32b05cdd0","GImage.js":"d93ca0496bdb3b9a6f15bdbd34db60ba","KReader.js":"f5a263bf4863aea23517f917fd969ddf","KTrigger.js":"5aeae1774d04509ab24cb9d08d0fa01d"}|{}|.|.|.|.|.|.|.|.|.|.
stroop|stroop|script|60498ba3034877988dce71760273bb3c|9999|f84961f5-1fe0-42be-bb6e-3d6e158e5558|6|6e3f3a54-96cc-406b-8cad-60d3f7c05675|2021/10/05 15:09:50|c4dc9832-f4c0-456a-b8d1-40d93ff847f9|59.86261040235526|59.86261040235526|ios|NA|NA|{"script":"stroop","startdelay":"1000","instructions":"full_instructions","practice":"no","type":"script","studytime":"3000","trialtype":"0","leftcorrectperc":"50","leftcorrect":"0","trialnum":"10"}|1|0|7|1|0|true|stroop|816|800|0|3000|0|4|incong|yes|1162|1|{"GMap.js":"7bf21ec7ecf4ce0725fd9dea6b56c106","KTime.js":"ba6fc878b489aaefa35702ebc8f3d103","stroop.js":"1656ef3fd4ea74440d22f87200f0bb26","Entity.js":"28a8361005a6db76408dcc5af9403483","KFile.js":"d8e5c4e82ac859b480024783617e8f57","Sprite.js":"c44178584e0bb6d9d474687c6b538f43","GImage_Create.js":"22e584eef1a96a36e101a6ea758d54a3","GBox.js":"addf6567a2dd4e0b967395c1733dce04","ErrorMan.js":"16f2928a391f50cf7b4490f302d3ff3f","KPosition.js":"13ae0a9b307740c9c93598bd0c683aa6","KWriter.js":"d9315c7c0596d7757e962ad67bbbf722","Tools.js":"6c811a0fbb6f459fbd564b4788745f51","iosScriptHelper.js":"3c70f9d2aa7011e89f530fb689aae7e3","GameRunner.js":"33f18fd874a180504eaee08fce10d152","GameParams.js":"eb1f2af97c8844ca1042d3d695139dfd","KAlpha.js":"6648736ab78d6600002ef4d6411270aa","GColor.js":"10d65f23c815938f3191d18ec16dc2ac","GList.js":"f59017e34743ec832f2ab4f5db57d10c","GButton.js":"62d972835a2f3952a212ebe917507fe3","GameEngine.js":"0c094384a8de4afa9861019fe247a550","Trial.js":"0a7180ddb548b09c7096d6066af9b3d4","ZipReader.js":"d7aa55d618c22498e786a4b32b05cdd0","GImage.js":"d93ca0496bdb3b9a6f15bdbd34db60ba","KReader.js":"f5a263bf4863aea23517f917fd969ddf","KTrigger.js":"5aeae1774d04509ab24cb9d08d0fa01d"}|{}|.|.|.|.|.|.|.|.|.|.
stroop|stroop|script|60498ba3034877988dce71760273bb3c|9999|f84961f5-1fe0-42be-bb6e-3d6e158e5558|6|6e3f3a54-96cc-406b-8cad-60d3f7c05675|2021/10/05 15:09:51|adf6ab8f-93b8-4a05-9077-0e9583e95978|59.82905982905983|59.82905982905983|ios|NA|NA|{"startdelay":"1000","leftcorrect":"0","leftcorrectperc":"50","practice":"no","instructions":"full_instructions","studytime":"3000","type":"script","script":"stroop","trialnum":"10","trialtype":"1"}|1|0|8|1|0|true|stroop|616|600|0|3000|0|1|cong|yes|727|1|{"GMap.js":"7bf21ec7ecf4ce0725fd9dea6b56c106","KTime.js":"ba6fc878b489aaefa35702ebc8f3d103","stroop.js":"1656ef3fd4ea74440d22f87200f0bb26","Entity.js":"28a8361005a6db76408dcc5af9403483","KFile.js":"d8e5c4e82ac859b480024783617e8f57","Sprite.js":"c44178584e0bb6d9d474687c6b538f43","GImage_Create.js":"22e584eef1a96a36e101a6ea758d54a3","GBox.js":"addf6567a2dd4e0b967395c1733dce04","ErrorMan.js":"16f2928a391f50cf7b4490f302d3ff3f","KPosition.js":"13ae0a9b307740c9c93598bd0c683aa6","KWriter.js":"d9315c7c0596d7757e962ad67bbbf722","Tools.js":"6c811a0fbb6f459fbd564b4788745f51","iosScriptHelper.js":"3c70f9d2aa7011e89f530fb689aae7e3","GameRunner.js":"33f18fd874a180504eaee08fce10d152","GameParams.js":"eb1f2af97c8844ca1042d3d695139dfd","KAlpha.js":"6648736ab78d6600002ef4d6411270aa","GColor.js":"10d65f23c815938f3191d18ec16dc2ac","GList.js":"f59017e34743ec832f2ab4f5db57d10c","GButton.js":"62d972835a2f3952a212ebe917507fe3","GameEngine.js":"0c094384a8de4afa9861019fe247a550","Trial.js":"0a7180ddb548b09c7096d6066af9b3d4","ZipReader.js":"d7aa55d618c22498e786a4b32b05cdd0","GImage.js":"d93ca0496bdb3b9a6f15bdbd34db60ba","KReader.js":"f5a263bf4863aea23517f917fd969ddf","KTrigger.js":"5aeae1774d04509ab24cb9d08d0fa01d"}|{}|.|.|.|.|.|.|.|.|.|.
stroop|stroop|script|60498ba3034877988dce71760273bb3c|9999|f84961f5-1fe0-42be-bb6e-3d6e158e5558|6|6e3f3a54-96cc-406b-8cad-60d3f7c05675|2021/10/05 15:09:53|ec80c930-a55d-4ed9-a530-5e2a734a435a|59.738643434972|59.738643434972|ios|NA|NA|{"script":"stroop","startdelay":"1000","instructions":"full_instructions","practice":"no","type":"script","studytime":"3000","trialtype":"1","leftcorrectperc":"50","leftcorrect":"1","trialnum":"10"}|1|0|9|1|0|true|stroop|816|800|0|3000|1|5|cong|no|734|1|{"GMap.js":"7bf21ec7ecf4ce0725fd9dea6b56c106","KTime.js":"ba6fc878b489aaefa35702ebc8f3d103","stroop.js":"1656ef3fd4ea74440d22f87200f0bb26","Entity.js":"28a8361005a6db76408dcc5af9403483","KFile.js":"d8e5c4e82ac859b480024783617e8f57","Sprite.js":"c44178584e0bb6d9d474687c6b538f43","GImage_Create.js":"22e584eef1a96a36e101a6ea758d54a3","GBox.js":"addf6567a2dd4e0b967395c1733dce04","ErrorMan.js":"16f2928a391f50cf7b4490f302d3ff3f","KPosition.js":"13ae0a9b307740c9c93598bd0c683aa6","KWriter.js":"d9315c7c0596d7757e962ad67bbbf722","Tools.js":"6c811a0fbb6f459fbd564b4788745f51","iosScriptHelper.js":"3c70f9d2aa7011e89f530fb689aae7e3","GameRunner.js":"33f18fd874a180504eaee08fce10d152","GameParams.js":"eb1f2af97c8844ca1042d3d695139dfd","KAlpha.js":"6648736ab78d6600002ef4d6411270aa","GColor.js":"10d65f23c815938f3191d18ec16dc2ac","GList.js":"f59017e34743ec832f2ab4f5db57d10c","GButton.js":"62d972835a2f3952a212ebe917507fe3","GameEngine.js":"0c094384a8de4afa9861019fe247a550","Trial.js":"0a7180ddb548b09c7096d6066af9b3d4","ZipReader.js":"d7aa55d618c22498e786a4b32b05cdd0","GImage.js":"d93ca0496bdb3b9a6f15bdbd34db60ba","KReader.js":"f5a263bf4863aea23517f917fd969ddf","KTrigger.js":"5aeae1774d04509ab24cb9d08d0fa01d"}|{}|.|.|.|.|.|.|.|.|.|.
stroop|stroop|script|60498ba3034877988dce71760273bb3c|9999|f84961f5-1fe0-42be-bb6e-3d6e158e5558|6|6e3f3a54-96cc-406b-8cad-60d3f7c05675|2021/10/05 15:09:55|bfadc33b-23ae-4de0-a697-4cf44826cd9e|59.765208110992525|59.765208110992525|ios|NA|NA|{"leftcorrectperc":"50","instructions":"full_instructions","type":"script","studytime":"3000","leftcorrect":"1","script":"stroop","trialtype":"0","trialnum":"10","practice":"no","startdelay":"1000"}|1|0|10|1|0|true|stroop|900|900|0|3000|0|1|incong|no|919|0|{"GMap.js":"7bf21ec7ecf4ce0725fd9dea6b56c106","KTime.js":"ba6fc878b489aaefa35702ebc8f3d103","stroop.js":"1656ef3fd4ea74440d22f87200f0bb26","Entity.js":"28a8361005a6db76408dcc5af9403483","KFile.js":"d8e5c4e82ac859b480024783617e8f57","Sprite.js":"c44178584e0bb6d9d474687c6b538f43","GImage_Create.js":"22e584eef1a96a36e101a6ea758d54a3","GBox.js":"addf6567a2dd4e0b967395c1733dce04","ErrorMan.js":"16f2928a391f50cf7b4490f302d3ff3f","KPosition.js":"13ae0a9b307740c9c93598bd0c683aa6","KWriter.js":"d9315c7c0596d7757e962ad67bbbf722","Tools.js":"6c811a0fbb6f459fbd564b4788745f51","iosScriptHelper.js":"3c70f9d2aa7011e89f530fb689aae7e3","GameRunner.js":"33f18fd874a180504eaee08fce10d152","GameParams.js":"eb1f2af97c8844ca1042d3d695139dfd","KAlpha.js":"6648736ab78d6600002ef4d6411270aa","GColor.js":"10d65f23c815938f3191d18ec16dc2ac","GList.js":"f59017e34743ec832f2ab4f5db57d10c","GButton.js":"62d972835a2f3952a212ebe917507fe3","GameEngine.js":"0c094384a8de4afa9861019fe247a550","Trial.js":"0a7180ddb548b09c7096d6066af9b3d4","ZipReader.js":"d7aa55d618c22498e786a4b32b05cdd0","GImage.js":"d93ca0496bdb3b9a6f15bdbd34db60ba","KReader.js":"f5a263bf4863aea23517f917fd969ddf","KTrigger.js":"5aeae1774d04509ab24cb9d08d0fa01d"}|{}|.|.|.|.|.|.|.|.|.|.
stroop|stroop|script|0929b01d1cb39b37fb9be25af33b87ff|9999|b08532d2-c438-491e-8cbc-8dec3f99bff6|8|057b27bb-5e89-4ab5-ad38-0893e39774e5|2021/10/05 15:28:41|58fb3999-181d-4683-922f-bbe2aa99e6ac|59.63506898086337|59.190031152647975|android|1937.0MB|54.1598750154211|{"type":"script","script":"stroop","trialnum":"10","startdelay":"1000","studytime":"3000","practice":"no","leftcorrectperc":"50","instructions":"quick_instructions","defval_survey_pack_id":"StroopB","leftcorrect":"0","trialtype":"1"}|1|1|1|1|0|true|stroop|1001|1000|0|3000|0|0|cong|yes|1181|1|{"GameEngine.js":"0c094384a8de4afa9861019fe247a550","Tools.js":"6c811a0fbb6f459fbd564b4788745f51","GList.js":"f59017e34743ec832f2ab4f5db57d10c","KTime.js":"ba6fc878b489aaefa35702ebc8f3d103","ErrorMan.js":"16f2928a391f50cf7b4490f302d3ff3f","GImage.js":"d93ca0496bdb3b9a6f15bdbd34db60ba","GColor.js":"10d65f23c815938f3191d18ec16dc2ac","stroop.js":"1656ef3fd4ea74440d22f87200f0bb26","Entity.js":"28a8361005a6db76408dcc5af9403483","KPosition.js":"13ae0a9b307740c9c93598bd0c683aa6","KAlpha.js":"6648736ab78d6600002ef4d6411270aa","Sprite.js":"c44178584e0bb6d9d474687c6b538f43","GBox.js":"addf6567a2dd4e0b967395c1733dce04","GButton.js":"62d972835a2f3952a212ebe917507fe3","GImage_Create.js":"22e584eef1a96a36e101a6ea758d54a3","ZipReader.js":"d7aa55d618c22498e786a4b32b05cdd0","KFile.js":"d8e5c4e82ac859b480024783617e8f57","KReader.js":"f5a263bf4863aea23517f917fd969ddf","KWriter.js":"d9315c7c0596d7757e962ad67bbbf722","stroop.json":"9c3926eb8357f74932837bc6514f28a4","GameRunner.js":"33f18fd874a180504eaee08fce10d152","KTrigger.js":"5aeae1774d04509ab24cb9d08d0fa01d","GMap.js":"7bf21ec7ecf4ce0725fd9dea6b56c106","GameParams.js":"eb1f2af97c8844ca1042d3d695139dfd","Trial.js":"0a7180ddb548b09c7096d6066af9b3d4"}|{"":"-1"}|.|.|.|.|.|.|.|.|.|.
stroop|stroop|script|0929b01d1cb39b37fb9be25af33b87ff|9999|b08532d2-c438-491e-8cbc-8dec3f99bff6|8|057b27bb-5e89-4ab5-ad38-0893e39774e5|2021/10/05 15:28:43|df5e3acf-9849-4e04-80ef-87868768f7b2|59.815116911364875|59.27134312126156|android|1936.0MB|54.12865070587684|{"type":"script","script":"stroop","trialnum":"10","startdelay":"1000","studytime":"3000","practice":"no","leftcorrectperc":"50","instructions":"quick_instructions","defval_survey_pack_id":"StroopB","leftcorrect":"0","trialtype":"1"}|1|1|2|1|0|true|stroop|713|700|0|3000|0|2|cong|yes|1088|1|{"GameEngine.js":"0c094384a8de4afa9861019fe247a550","Tools.js":"6c811a0fbb6f459fbd564b4788745f51","GList.js":"f59017e34743ec832f2ab4f5db57d10c","KTime.js":"ba6fc878b489aaefa35702ebc8f3d103","ErrorMan.js":"16f2928a391f50cf7b4490f302d3ff3f","GImage.js":"d93ca0496bdb3b9a6f15bdbd34db60ba","GColor.js":"10d65f23c815938f3191d18ec16dc2ac","stroop.js":"1656ef3fd4ea74440d22f87200f0bb26","Entity.js":"28a8361005a6db76408dcc5af9403483","KPosition.js":"13ae0a9b307740c9c93598bd0c683aa6","KAlpha.js":"6648736ab78d6600002ef4d6411270aa","Sprite.js":"c44178584e0bb6d9d474687c6b538f43","GBox.js":"addf6567a2dd4e0b967395c1733dce04","GButton.js":"62d972835a2f3952a212ebe917507fe3","GImage_Create.js":"22e584eef1a96a36e101a6ea758d54a3","ZipReader.js":"d7aa55d618c22498e786a4b32b05cdd0","KFile.js":"d8e5c4e82ac859b480024783617e8f57","KReader.js":"f5a263bf4863aea23517f917fd969ddf","KWriter.js":"d9315c7c0596d7757e962ad67bbbf722","stroop.json":"9c3926eb8357f74932837bc6514f28a4","GameRunner.js":"33f18fd874a180504eaee08fce10d152","KTrigger.js":"5aeae1774d04509ab24cb9d08d0fa01d","GMap.js":"7bf21ec7ecf4ce0725fd9dea6b56c106","GameParams.js":"eb1f2af97c8844ca1042d3d695139dfd","Trial.js":"0a7180ddb548b09c7096d6066af9b3d4"}|{"":"-1"}|.|.|.|.|.|.|.|.|.|.
stroop|stroop|script|0929b01d1cb39b37fb9be25af33b87ff|9999|b08532d2-c438-491e-8cbc-8dec3f99bff6|8|057b27bb-5e89-4ab5-ad38-0893e39774e5|2021/10/05 15:28:44|0885d99a-46d3-4e94-83e2-03e51fdf305d|59.81941309255079|59.25507900677201|android|1936.0MB|54.114239486087165|{"type":"script","script":"stroop","trialnum":"10","startdelay":"1000","studytime":"3000","practice":"no","leftcorrectperc":"50","instructions":"quick_instructions","defval_survey_pack_id":"StroopB","leftcorrect":"1","trialtype":"1"}|1|1|3|1|0|true|stroop|905|900|0|3000|1|1|cong|no|823|1|{"GameEngine.js":"0c094384a8de4afa9861019fe247a550","Tools.js":"6c811a0fbb6f459fbd564b4788745f51","GList.js":"f59017e34743ec832f2ab4f5db57d10c","KTime.js":"ba6fc878b489aaefa35702ebc8f3d103","ErrorMan.js":"16f2928a391f50cf7b4490f302d3ff3f","GImage.js":"d93ca0496bdb3b9a6f15bdbd34db60ba","GColor.js":"10d65f23c815938f3191d18ec16dc2ac","stroop.js":"1656ef3fd4ea74440d22f87200f0bb26","Entity.js":"28a8361005a6db76408dcc5af9403483","KPosition.js":"13ae0a9b307740c9c93598bd0c683aa6","KAlpha.js":"6648736ab78d6600002ef4d6411270aa","Sprite.js":"c44178584e0bb6d9d474687c6b538f43","GBox.js":"addf6567a2dd4e0b967395c1733dce04","GButton.js":"62d972835a2f3952a212ebe917507fe3","GImage_Create.js":"22e584eef1a96a36e101a6ea758d54a3","ZipReader.js":"d7aa55d618c22498e786a4b32b05cdd0","KFile.js":"d8e5c4e82ac859b480024783617e8f57","KReader.js":"f5a263bf4863aea23517f917fd969ddf","KWriter.js":"d9315c7c0596d7757e962ad67bbbf722","stroop.json":"9c3926eb8357f74932837bc6514f28a4","GameRunner.js":"33f18fd874a180504eaee08fce10d152","KTrigger.js":"5aeae1774d04509ab24cb9d08d0fa01d","GMap.js":"7bf21ec7ecf4ce0725fd9dea6b56c106","GameParams.js":"eb1f2af97c8844ca1042d3d695139dfd","Trial.js":"0a7180ddb548b09c7096d6066af9b3d4"}|{"":"-1"}|.|.|.|.|.|.|.|.|.|.
stroop|stroop|script|0929b01d1cb39b37fb9be25af33b87ff|9999|b08532d2-c438-491e-8cbc-8dec3f99bff6|8|057b27bb-5e89-4ab5-ad38-0893e39774e5|2021/10/05 15:28:41|58fb3999-181d-4683-922f-bbe2aa99e6ac|59.63506898086337|59.190031152647975|android|1937.0MB|54.1598750154211|{"type":"script","script":"stroop","trialnum":"10","startdelay":"1000","studytime":"3000","practice":"no","leftcorrectperc":"50","instructions":"quick_instructions","defval_survey_pack_id":"StroopB","leftcorrect":"0","trialtype":"1"}|1|1|1|1|0|true|stroop|1001|1000|0|3000|0|0|cong|yes|1181|1|{"GameEngine.js":"0c094384a8de4afa9861019fe247a550","Tools.js":"6c811a0fbb6f459fbd564b4788745f51","GList.js":"f59017e34743ec832f2ab4f5db57d10c","KTime.js":"ba6fc878b489aaefa35702ebc8f3d103","ErrorMan.js":"16f2928a391f50cf7b4490f302d3ff3f","GImage.js":"d93ca0496bdb3b9a6f15bdbd34db60ba","GColor.js":"10d65f23c815938f3191d18ec16dc2ac","stroop.js":"1656ef3fd4ea74440d22f87200f0bb26","Entity.js":"28a8361005a6db76408dcc5af9403483","KPosition.js":"13ae0a9b307740c9c93598bd0c683aa6","KAlpha.js":"6648736ab78d6600002ef4d6411270aa","Sprite.js":"c44178584e0bb6d9d474687c6b538f43","GBox.js":"addf6567a2dd4e0b967395c1733dce04","GButton.js":"62d972835a2f3952a212ebe917507fe3","GImage_Create.js":"22e584eef1a96a36e101a6ea758d54a3","ZipReader.js":"d7aa55d618c22498e786a4b32b05cdd0","KFile.js":"d8e5c4e82ac859b480024783617e8f57","KReader.js":"f5a263bf4863aea23517f917fd969ddf","KWriter.js":"d9315c7c0596d7757e962ad67bbbf722","stroop.json":"9c3926eb8357f74932837bc6514f28a4","GameRunner.js":"33f18fd874a180504eaee08fce10d152","KTrigger.js":"5aeae1774d04509ab24cb9d08d0fa01d","GMap.js":"7bf21ec7ecf4ce0725fd9dea6b56c106","GameParams.js":"eb1f2af97c8844ca1042d3d695139dfd","Trial.js":"0a7180ddb548b09c7096d6066af9b3d4"}|{"":"-1"}|.|.|.|.|.|.|.|.|.|.
stroop|stroop|script|0929b01d1cb39b37fb9be25af33b87ff|9999|b08532d2-c438-491e-8cbc-8dec3f99bff6|8|057b27bb-5e89-4ab5-ad38-0893e39774e5|2021/10/05 15:28:43|df5e3acf-9849-4e04-80ef-87868768f7b2|59.815116911364875|59.27134312126156|android|1936.0MB|54.12865070587684|{"type":"script","script":"stroop","trialnum":"10","startdelay":"1000","studytime":"3000","practice":"no","leftcorrectperc":"50","instructions":"quick_instructions","defval_survey_pack_id":"StroopB","leftcorrect":"0","trialtype":"1"}|1|1|2|1|0|true|stroop|713|700|0|3000|0|2|cong|yes|1088|1|{"GameEngine.js":"0c094384a8de4afa9861019fe247a550","Tools.js":"6c811a0fbb6f459fbd564b4788745f51","GList.js":"f59017e34743ec832f2ab4f5db57d10c","KTime.js":"ba6fc878b489aaefa35702ebc8f3d103","ErrorMan.js":"16f2928a391f50cf7b4490f302d3ff3f","GImage.js":"d93ca0496bdb3b9a6f15bdbd34db60ba","GColor.js":"10d65f23c815938f3191d18ec16dc2ac","stroop.js":"1656ef3fd4ea74440d22f87200f0bb26","Entity.js":"28a8361005a6db76408dcc5af9403483","KPosition.js":"13ae0a9b307740c9c93598bd0c683aa6","KAlpha.js":"6648736ab78d6600002ef4d6411270aa","Sprite.js":"c44178584e0bb6d9d474687c6b538f43","GBox.js":"addf6567a2dd4e0b967395c1733dce04","GButton.js":"62d972835a2f3952a212ebe917507fe3","GImage_Create.js":"22e584eef1a96a36e101a6ea758d54a3","ZipReader.js":"d7aa55d618c22498e786a4b32b05cdd0","KFile.js":"d8e5c4e82ac859b480024783617e8f57","KReader.js":"f5a263bf4863aea23517f917fd969ddf","KWriter.js":"d9315c7c0596d7757e962ad67bbbf722","stroop.json":"9c3926eb8357f74932837bc6514f28a4","GameRunner.js":"33f18fd874a180504eaee08fce10d152","KTrigger.js":"5aeae1774d04509ab24cb9d08d0fa01d","GMap.js":"7bf21ec7ecf4ce0725fd9dea6b56c106","GameParams.js":"eb1f2af97c8844ca1042d3d695139dfd","Trial.js":"0a7180ddb548b09c7096d6066af9b3d4"}|{"":"-1"}|.|.|.|.|.|.|.|.|.|.
stroop|stroop|script|0929b01d1cb39b37fb9be25af33b87ff|9999|b08532d2-c438-491e-8cbc-8dec3f99bff6|8|057b27bb-5e89-4ab5-ad38-0893e39774e5|2021/10/05 15:28:44|0885d99a-46d3-4e94-83e2-03e51fdf305d|59.81941309255079|59.25507900677201|android|1936.0MB|54.114239486087165|{"type":"script","script":"stroop","trialnum":"10","startdelay":"1000","studytime":"3000","practice":"no","leftcorrectperc":"50","instructions":"quick_instructions","defval_survey_pack_id":"StroopB","leftcorrect":"1","trialtype":"1"}|1|1|3|1|0|true|stroop|905|900|0|3000|1|1|cong|no|823|1|{"GameEngine.js":"0c094384a8de4afa9861019fe247a550","Tools.js":"6c811a0fbb6f459fbd564b4788745f51","GList.js":"f59017e34743ec832f2ab4f5db57d10c","KTime.js":"ba6fc878b489aaefa35702ebc8f3d103","ErrorMan.js":"16f2928a391f50cf7b4490f302d3ff3f","GImage.js":"d93ca0496bdb3b9a6f15bdbd34db60ba","GColor.js":"10d65f23c815938f3191d18ec16dc2ac","stroop.js":"1656ef3fd4ea74440d22f87200f0bb26","Entity.js":"28a8361005a6db76408dcc5af9403483","KPosition.js":"13ae0a9b307740c9c93598bd0c683aa6","KAlpha.js":"6648736ab78d6600002ef4d6411270aa","Sprite.js":"c44178584e0bb6d9d474687c6b538f43","GBox.js":"addf6567a2dd4e0b967395c1733dce04","GButton.js":"62d972835a2f3952a212ebe917507fe3","GImage_Create.js":"22e584eef1a96a36e101a6ea758d54a3","ZipReader.js":"d7aa55d618c22498e786a4b32b05cdd0","KFile.js":"d8e5c4e82ac859b480024783617e8f57","KReader.js":"f5a263bf4863aea23517f917fd969ddf","KWriter.js":"d9315c7c0596d7757e962ad67bbbf722","stroop.json":"9c3926eb8357f74932837bc6514f28a4","GameRunner.js":"33f18fd874a180504eaee08fce10d152","KTrigger.js":"5aeae1774d04509ab24cb9d08d0fa01d","GMap.js":"7bf21ec7ecf4ce0725fd9dea6b56c106","GameParams.js":"eb1f2af97c8844ca1042d3d695139dfd","Trial.js":"0a7180ddb548b09c7096d6066af9b3d4"}|{"":"-1"}|.|.|.|.|.|.|.|.|.|.
stroop|stroop|script|0929b01d1cb39b37fb9be25af33b87ff|9999|99041cf2-7ee4-41d6-8e2d-1f79f277c853|2|db0e3e4f-f924-46e2-b95b-a5ab06f200b6|2021/10/06 10:40:02|5316ad4f-8e30-4854-8856-3f0a02046c4f|59.87928843710292|58.608640406607364|android|1890.0MB|50.69271512914975|{"type":"script","script":"stroop","trialnum":"10","startdelay":"1000","studytime":"3000","practice":"no","leftcorrectperc":"50","instructions":"quick_instructions","defval_survey_pack_id":"StroopB","leftcorrect":"0","trialtype":"0"}|1|1|1|1|0|true|stroop|901|900|0|3000|0|2|incong|yes|1031|1|{"GameEngine.js":"0c094384a8de4afa9861019fe247a550","Tools.js":"6c811a0fbb6f459fbd564b4788745f51","GList.js":"f59017e34743ec832f2ab4f5db57d10c","KTime.js":"ba6fc878b489aaefa35702ebc8f3d103","ErrorMan.js":"16f2928a391f50cf7b4490f302d3ff3f","GImage.js":"d93ca0496bdb3b9a6f15bdbd34db60ba","GColor.js":"10d65f23c815938f3191d18ec16dc2ac","stroop.js":"3682032a94a733ddb757c331a1de2b6f","Entity.js":"28a8361005a6db76408dcc5af9403483","KPosition.js":"13ae0a9b307740c9c93598bd0c683aa6","KAlpha.js":"6648736ab78d6600002ef4d6411270aa","Sprite.js":"c44178584e0bb6d9d474687c6b538f43","GBox.js":"addf6567a2dd4e0b967395c1733dce04","GButton.js":"62d972835a2f3952a212ebe917507fe3","GImage_Create.js":"515d416ed6077763b7948217c1df56b0","ZipReader.js":"d7aa55d618c22498e786a4b32b05cdd0","KFile.js":"d8e5c4e82ac859b480024783617e8f57","KReader.js":"f5a263bf4863aea23517f917fd969ddf","KWriter.js":"d9315c7c0596d7757e962ad67bbbf722","stroop.json":"7d369627b082062004f03e79db06c5e1","GameRunner.js":"33f18fd874a180504eaee08fce10d152","KTrigger.js":"5aeae1774d04509ab24cb9d08d0fa01d","GMap.js":"7bf21ec7ecf4ce0725fd9dea6b56c106","GameParams.js":"eb1f2af97c8844ca1042d3d695139dfd","Trial.js":"0a7180ddb548b09c7096d6066af9b3d4"}|{"":"-1"}|.|.|.|.|.|.|.|.|.|.
stroop|stroop|script|0929b01d1cb39b37fb9be25af33b87ff|9999|99041cf2-7ee4-41d6-8e2d-1f79f277c853|2|db0e3e4f-f924-46e2-b95b-a5ab06f200b6|2021/10/06 10:40:04|e49dc965-4d19-4ef1-a052-b44f327e2e48|59.59885386819484|59.02578796561604|android|1891.0MB|50.71470608563069|{"type":"script","script":"stroop","trialnum":"10","startdelay":"1000","studytime":"3000","practice":"no","leftcorrectperc":"50","instructions":"quick_instructions","defval_survey_pack_id":"StroopB","leftcorrect":"0","trialtype":"1"}|1|1|2|1|0|true|stroop|903|900|0|3000|0|5|cong|yes|792|1|{"GameEngine.js":"0c094384a8de4afa9861019fe247a550","Tools.js":"6c811a0fbb6f459fbd564b4788745f51","GList.js":"f59017e34743ec832f2ab4f5db57d10c","KTime.js":"ba6fc878b489aaefa35702ebc8f3d103","ErrorMan.js":"16f2928a391f50cf7b4490f302d3ff3f","GImage.js":"d93ca0496bdb3b9a6f15bdbd34db60ba","GColor.js":"10d65f23c815938f3191d18ec16dc2ac","stroop.js":"3682032a94a733ddb757c331a1de2b6f","Entity.js":"28a8361005a6db76408dcc5af9403483","KPosition.js":"13ae0a9b307740c9c93598bd0c683aa6","KAlpha.js":"6648736ab78d6600002ef4d6411270aa","Sprite.js":"c44178584e0bb6d9d474687c6b538f43","GBox.js":"addf6567a2dd4e0b967395c1733dce04","GButton.js":"62d972835a2f3952a212ebe917507fe3","GImage_Create.js":"515d416ed6077763b7948217c1df56b0","ZipReader.js":"d7aa55d618c22498e786a4b32b05cdd0","KFile.js":"d8e5c4e82ac859b480024783617e8f57","KReader.js":"f5a263bf4863aea23517f917fd969ddf","KWriter.js":"d9315c7c0596d7757e962ad67bbbf722","stroop.json":"7d369627b082062004f03e79db06c5e1","GameRunner.js":"33f18fd874a180504eaee08fce10d152","KTrigger.js":"5aeae1774d04509ab24cb9d08d0fa01d","GMap.js":"7bf21ec7ecf4ce0725fd9dea6b56c106","GameParams.js":"eb1f2af97c8844ca1042d3d695139dfd","Trial.js":"0a7180ddb548b09c7096d6066af9b3d4"}|{"":"-1"}|.|.|.|.|.|.|.|.|.|.
stroop|stroop|script|0929b01d1cb39b37fb9be25af33b87ff|9999|99041cf2-7ee4-41d6-8e2d-1f79f277c853|2|db0e3e4f-f924-46e2-b95b-a5ab06f200b6|2021/10/06 10:40:05|48bc6d4b-e5d8-433c-8ef2-60c73eb838d2|59.95558845299778|59.21539600296077|android|1890.0MB|50.69198209726705|{"type":"script","script":"stroop","trialnum":"10","startdelay":"1000","studytime":"3000","practice":"no","leftcorrectperc":"50","instructions":"quick_instructions","defval_survey_pack_id":"StroopB","leftcorrect":"0","trialtype":"1"}|1|1|3|1|0|true|stroop|510|500|0|3000|0|4|cong|yes|804|1|{"GameEngine.js":"0c094384a8de4afa9861019fe247a550","Tools.js":"6c811a0fbb6f459fbd564b4788745f51","GList.js":"f59017e34743ec832f2ab4f5db57d10c","KTime.js":"ba6fc878b489aaefa35702ebc8f3d103","ErrorMan.js":"16f2928a391f50cf7b4490f302d3ff3f","GImage.js":"d93ca0496bdb3b9a6f15bdbd34db60ba","GColor.js":"10d65f23c815938f3191d18ec16dc2ac","stroop.js":"3682032a94a733ddb757c331a1de2b6f","Entity.js":"28a8361005a6db76408dcc5af9403483","KPosition.js":"13ae0a9b307740c9c93598bd0c683aa6","KAlpha.js":"6648736ab78d6600002ef4d6411270aa","Sprite.js":"c44178584e0bb6d9d474687c6b538f43","GBox.js":"addf6567a2dd4e0b967395c1733dce04","GButton.js":"62d972835a2f3952a212ebe917507fe3","GImage_Create.js":"515d416ed6077763b7948217c1df56b0","ZipReader.js":"d7aa55d618c22498e786a4b32b05cdd0","KFile.js":"d8e5c4e82ac859b480024783617e8f57","KReader.js":"f5a263bf4863aea23517f917fd969ddf","KWriter.js":"d9315c7c0596d7757e962ad67bbbf722","stroop.json":"7d369627b082062004f03e79db06c5e1","GameRunner.js":"33f18fd874a180504eaee08fce10d152","KTrigger.js":"5aeae1774d04509ab24cb9d08d0fa01d","GMap.js":"7bf21ec7ecf4ce0725fd9dea6b56c106","GameParams.js":"eb1f2af97c8844ca1042d3d695139dfd","Trial.js":"0a7180ddb548b09c7096d6066af9b3d4"}|{"":"-1"}|.|.|.|.|.|.|.|.|.|.
stroop|stroop|script|0929b01d1cb39b37fb9be25af33b87ff|9999|99041cf2-7ee4-41d6-8e2d-1f79f277c853|2|db0e3e4f-f924-46e2-b95b-a5ab06f200b6|2021/10/06 10:40:07|68b84bea-e6f9-4547-a296-6340cb1fb653|59.82905982905983|58.6894586894587|android|1891.0MB|50.71062205085566|{"type":"script","script":"stroop","trialnum":"10","startdelay":"1000","studytime":"3000","practice":"no","leftcorrectperc":"50","instructions":"quick_instructions","defval_survey_pack_id":"StroopB","leftcorrect":"1","trialtype":"0"}|1|1|4|1|0|true|stroop|701|700|0|3000|1|1|incong|no|1006|1|{"GameEngine.js":"0c094384a8de4afa9861019fe247a550","Tools.js":"6c811a0fbb6f459fbd564b4788745f51","GList.js":"f59017e34743ec832f2ab4f5db57d10c","KTime.js":"ba6fc878b489aaefa35702ebc8f3d103","ErrorMan.js":"16f2928a391f50cf7b4490f302d3ff3f","GImage.js":"d93ca0496bdb3b9a6f15bdbd34db60ba","GColor.js":"10d65f23c815938f3191d18ec16dc2ac","stroop.js":"3682032a94a733ddb757c331a1de2b6f","Entity.js":"28a8361005a6db76408dcc5af9403483","KPosition.js":"13ae0a9b307740c9c93598bd0c683aa6","KAlpha.js":"6648736ab78d6600002ef4d6411270aa","Sprite.js":"c44178584e0bb6d9d474687c6b538f43","GBox.js":"addf6567a2dd4e0b967395c1733dce04","GButton.js":"62d972835a2f3952a212ebe917507fe3","GImage_Create.js":"515d416ed6077763b7948217c1df56b0","ZipReader.js":"d7aa55d618c22498e786a4b32b05cdd0","KFile.js":"d8e5c4e82ac859b480024783617e8f57","KReader.js":"f5a263bf4863aea23517f917fd969ddf","KWriter.js":"d9315c7c0596d7757e962ad67bbbf722","stroop.json":"7d369627b082062004f03e79db06c5e1","GameRunner.js":"33f18fd874a180504eaee08fce10d152","KTrigger.js":"5aeae1774d04509ab24cb9d08d0fa01d","GMap.js":"7bf21ec7ecf4ce0725fd9dea6b56c106","GameParams.js":"eb1f2af97c8844ca1042d3d695139dfd","Trial.js":"0a7180ddb548b09c7096d6066af9b3d4"}|{"":"-1"}|.|.|.|.|.|.|.|.|.|.
stroop|stroop|script|0929b01d1cb39b37fb9be25af33b87ff|9999|99041cf2-7ee4-41d6-8e2d-1f79f277c853|2|db0e3e4f-f924-46e2-b95b-a5ab06f200b6|2021/10/06 10:40:09|9649c92c-65ef-4a2c-9a75-c585b940334c|60.3290676416819|59.110298598415596|android|1891.0MB|50.69763691464786|{"type":"script","script":"stroop","trialnum":"10","startdelay":"1000","studytime":"3000","practice":"no","leftcorrectperc":"50","instructions":"quick_instructions","defval_survey_pack_id":"StroopB","leftcorrect":"1","trialtype":"0"}|1|1|5|1|0|true|stroop|716|700|0|3000|1|4|incong|no|890|1|{"GameEngine.js":"0c094384a8de4afa9861019fe247a550","Tools.js":"6c811a0fbb6f459fbd564b4788745f51","GList.js":"f59017e34743ec832f2ab4f5db57d10c","KTime.js":"ba6fc878b489aaefa35702ebc8f3d103","ErrorMan.js":"16f2928a391f50cf7b4490f302d3ff3f","GImage.js":"d93ca0496bdb3b9a6f15bdbd34db60ba","GColor.js":"10d65f23c815938f3191d18ec16dc2ac","stroop.js":"3682032a94a733ddb757c331a1de2b6f","Entity.js":"28a8361005a6db76408dcc5af9403483","KPosition.js":"13ae0a9b307740c9c93598bd0c683aa6","KAlpha.js":"6648736ab78d6600002ef4d6411270aa","Sprite.js":"c44178584e0bb6d9d474687c6b538f43","GBox.js":"addf6567a2dd4e0b967395c1733dce04","GButton.js":"62d972835a2f3952a212ebe917507fe3","GImage_Create.js":"515d416ed6077763b7948217c1df56b0","ZipReader.js":"d7aa55d618c22498e786a4b32b05cdd0","KFile.js":"d8e5c4e82ac859b480024783617e8f57","KReader.js":"f5a263bf4863aea23517f917fd969ddf","KWriter.js":"d9315c7c0596d7757e962ad67bbbf722","stroop.json":"7d369627b082062004f03e79db06c5e1","GameRunner.js":"33f18fd874a180504eaee08fce10d152","KTrigger.js":"5aeae1774d04509ab24cb9d08d0fa01d","GMap.js":"7bf21ec7ecf4ce0725fd9dea6b56c106","GameParams.js":"eb1f2af97c8844ca1042d3d695139dfd","Trial.js":"0a7180ddb548b09c7096d6066af9b3d4"}|{"":"-1"}|.|.|.|.|.|.|.|.|.|.
stroop|stroop|script|0929b01d1cb39b37fb9be25af33b87ff|9999|99041cf2-7ee4-41d6-8e2d-1f79f277c853|2|db0e3e4f-f924-46e2-b95b-a5ab06f200b6|2021/10/06 10:40:11|14de563e-74fb-4ef3-9700-feb97eda69af|60.041407867494826|59.006211180124225|android|1890.0MB|50.69072547118242|{"type":"script","script":"stroop","trialnum":"10","startdelay":"1000","studytime":"3000","practice":"no","leftcorrectperc":"50","instructions":"quick_instructions","defval_survey_pack_id":"StroopB","leftcorrect":"1","trialtype":"0"}|1|1|6|1|0|true|stroop|1011|1000|0|3000|1|2|incong|no|876|1|{"GameEngine.js":"0c094384a8de4afa9861019fe247a550","Tools.js":"6c811a0fbb6f459fbd564b4788745f51","GList.js":"f59017e34743ec832f2ab4f5db57d10c","KTime.js":"ba6fc878b489aaefa35702ebc8f3d103","ErrorMan.js":"16f2928a391f50cf7b4490f302d3ff3f","GImage.js":"d93ca0496bdb3b9a6f15bdbd34db60ba","GColor.js":"10d65f23c815938f3191d18ec16dc2ac","stroop.js":"3682032a94a733ddb757c331a1de2b6f","Entity.js":"28a8361005a6db76408dcc5af9403483","KPosition.js":"13ae0a9b307740c9c93598bd0c683aa6","KAlpha.js":"6648736ab78d6600002ef4d6411270aa","Sprite.js":"c44178584e0bb6d9d474687c6b538f43","GBox.js":"addf6567a2dd4e0b967395c1733dce04","GButton.js":"62d972835a2f3952a212ebe917507fe3","GImage_Create.js":"515d416ed6077763b7948217c1df56b0","ZipReader.js":"d7aa55d618c22498e786a4b32b05cdd0","KFile.js":"d8e5c4e82ac859b480024783617e8f57","KReader.js":"f5a263bf4863aea23517f917fd969ddf","KWriter.js":"d9315c7c0596d7757e962ad67bbbf722","stroop.json":"7d369627b082062004f03e79db06c5e1","GameRunner.js":"33f18fd874a180504eaee08fce10d152","KTrigger.js":"5aeae1774d04509ab24cb9d08d0fa01d","GMap.js":"7bf21ec7ecf4ce0725fd9dea6b56c106","GameParams.js":"eb1f2af97c8844ca1042d3d695139dfd","Trial.js":"0a7180ddb548b09c7096d6066af9b3d4"}|{"":"-1"}|.|.|.|.|.|.|.|.|.|.
stroop|stroop|script|0929b01d1cb39b37fb9be25af33b87ff|9999|99041cf2-7ee4-41d6-8e2d-1f79f277c853|2|db0e3e4f-f924-46e2-b95b-a5ab06f200b6|2021/10/06 10:40:12|f741489d-503a-43bd-8be0-a4bfe4df40bc|59.41302791696492|58.697208303507516|android|1892.0MB|50.73313660153853|{"type":"script","script":"stroop","trialnum":"10","startdelay":"1000","studytime":"3000","practice":"no","leftcorrectperc":"50","instructions":"quick_instructions","defval_survey_pack_id":"StroopB","leftcorrect":"1","trialtype":"1"}|1|1|7|1|0|true|stroop|709|700|0|3000|1|1|cong|no|648|1|{"GameEngine.js":"0c094384a8de4afa9861019fe247a550","Tools.js":"6c811a0fbb6f459fbd564b4788745f51","GList.js":"f59017e34743ec832f2ab4f5db57d10c","KTime.js":"ba6fc878b489aaefa35702ebc8f3d103","ErrorMan.js":"16f2928a391f50cf7b4490f302d3ff3f","GImage.js":"d93ca0496bdb3b9a6f15bdbd34db60ba","GColor.js":"10d65f23c815938f3191d18ec16dc2ac","stroop.js":"3682032a94a733ddb757c331a1de2b6f","Entity.js":"28a8361005a6db76408dcc5af9403483","KPosition.js":"13ae0a9b307740c9c93598bd0c683aa6","KAlpha.js":"6648736ab78d6600002ef4d6411270aa","Sprite.js":"c44178584e0bb6d9d474687c6b538f43","GBox.js":"addf6567a2dd4e0b967395c1733dce04","GButton.js":"62d972835a2f3952a212ebe917507fe3","GImage_Create.js":"515d416ed6077763b7948217c1df56b0","ZipReader.js":"d7aa55d618c22498e786a4b32b05cdd0","KFile.js":"d8e5c4e82ac859b480024783617e8f57","KReader.js":"f5a263bf4863aea23517f917fd969ddf","KWriter.js":"d9315c7c0596d7757e962ad67bbbf722","stroop.json":"7d369627b082062004f03e79db06c5e1","GameRunner.js":"33f18fd874a180504eaee08fce10d152","KTrigger.js":"5aeae1774d04509ab24cb9d08d0fa01d","GMap.js":"7bf21ec7ecf4ce0725fd9dea6b56c106","GameParams.js":"eb1f2af97c8844ca1042d3d695139dfd","Trial.js":"0a7180ddb548b09c7096d6066af9b3d4"}|{"":"-1"}|.|.|.|.|.|.|.|.|.|.
stroop|stroop|script|0929b01d1cb39b37fb9be25af33b87ff|9999|99041cf2-7ee4-41d6-8e2d-1f79f277c853|2|db0e3e4f-f924-46e2-b95b-a5ab06f200b6|2021/10/06 10:40:14|84d99306-b5af-4f18-b806-c3018cda8176|59.81035740335521|59.08096280087528|android|1892.0MB|50.72863369140196|{"type":"script","script":"stroop","trialnum":"10","startdelay":"1000","studytime":"3000","practice":"no","leftcorrectperc":"50","instructions":"quick_instructions","defval_survey_pack_id":"StroopB","leftcorrect":"0","trialtype":"1"}|1|1|8|1|0|true|stroop|611|600|0|3000|0|0|cong|yes|712|1|{"GameEngine.js":"0c094384a8de4afa9861019fe247a550","Tools.js":"6c811a0fbb6f459fbd564b4788745f51","GList.js":"f59017e34743ec832f2ab4f5db57d10c","KTime.js":"ba6fc878b489aaefa35702ebc8f3d103","ErrorMan.js":"16f2928a391f50cf7b4490f302d3ff3f","GImage.js":"d93ca0496bdb3b9a6f15bdbd34db60ba","GColor.js":"10d65f23c815938f3191d18ec16dc2ac","stroop.js":"3682032a94a733ddb757c331a1de2b6f","Entity.js":"28a8361005a6db76408dcc5af9403483","KPosition.js":"13ae0a9b307740c9c93598bd0c683aa6","KAlpha.js":"6648736ab78d6600002ef4d6411270aa","Sprite.js":"c44178584e0bb6d9d474687c6b538f43","GBox.js":"addf6567a2dd4e0b967395c1733dce04","GButton.js":"62d972835a2f3952a212ebe917507fe3","GImage_Create.js":"515d416ed6077763b7948217c1df56b0","ZipReader.js":"d7aa55d618c22498e786a4b32b05cdd0","KFile.js":"d8e5c4e82ac859b480024783617e8f57","KReader.js":"f5a263bf4863aea23517f917fd969ddf","KWriter.js":"d9315c7c0596d7757e962ad67bbbf722","stroop.json":"7d369627b082062004f03e79db06c5e1","GameRunner.js":"33f18fd874a180504eaee08fce10d152","KTrigger.js":"5aeae1774d04509ab24cb9d08d0fa01d","GMap.js":"7bf21ec7ecf4ce0725fd9dea6b56c106","GameParams.js":"eb1f2af97c8844ca1042d3d695139dfd","Trial.js":"0a7180ddb548b09c7096d6066af9b3d4"}|{"":"-1"}|.|.|.|.|.|.|.|.|.|.
stroop|stroop|script|0929b01d1cb39b37fb9be25af33b87ff|9999|99041cf2-7ee4-41d6-8e2d-1f79f277c853|2|db0e3e4f-f924-46e2-b95b-a5ab06f200b6|2021/10/06 10:40:15|b382a626-4dee-41ba-9f2e-771e6b5432b6|59.854897218863364|59.250302297460706|android|1892.0MB|50.72528268850962|{"type":"script","script":"stroop","trialnum":"10","startdelay":"1000","studytime":"3000","practice":"no","leftcorrectperc":"50","instructions":"quick_instructions","defval_survey_pack_id":"StroopB","leftcorrect":"0","trialtype":"0"}|1|1|9|1|0|true|stroop|716|700|0|3000|0|4|incong|yes|888|1|{"GameEngine.js":"0c094384a8de4afa9861019fe247a550","Tools.js":"6c811a0fbb6f459fbd564b4788745f51","GList.js":"f59017e34743ec832f2ab4f5db57d10c","KTime.js":"ba6fc878b489aaefa35702ebc8f3d103","ErrorMan.js":"16f2928a391f50cf7b4490f302d3ff3f","GImage.js":"d93ca0496bdb3b9a6f15bdbd34db60ba","GColor.js":"10d65f23c815938f3191d18ec16dc2ac","stroop.js":"3682032a94a733ddb757c331a1de2b6f","Entity.js":"28a8361005a6db76408dcc5af9403483","KPosition.js":"13ae0a9b307740c9c93598bd0c683aa6","KAlpha.js":"6648736ab78d6600002ef4d6411270aa","Sprite.js":"c44178584e0bb6d9d474687c6b538f43","GBox.js":"addf6567a2dd4e0b967395c1733dce04","GButton.js":"62d972835a2f3952a212ebe917507fe3","GImage_Create.js":"515d416ed6077763b7948217c1df56b0","ZipReader.js":"d7aa55d618c22498e786a4b32b05cdd0","KFile.js":"d8e5c4e82ac859b480024783617e8f57","KReader.js":"f5a263bf4863aea23517f917fd969ddf","KWriter.js":"d9315c7c0596d7757e962ad67bbbf722","stroop.json":"7d369627b082062004f03e79db06c5e1","GameRunner.js":"33f18fd874a180504eaee08fce10d152","KTrigger.js":"5aeae1774d04509ab24cb9d08d0fa01d","GMap.js":"7bf21ec7ecf4ce0725fd9dea6b56c106","GameParams.js":"eb1f2af97c8844ca1042d3d695139dfd","Trial.js":"0a7180ddb548b09c7096d6066af9b3d4"}|{"":"-1"}|.|.|.|.|.|.|.|.|.|.
stroop|stroop|script|0929b01d1cb39b37fb9be25af33b87ff|9999|99041cf2-7ee4-41d6-8e2d-1f79f277c853|2|db0e3e4f-f924-46e2-b95b-a5ab06f200b6|2021/10/06 10:40:17|00fb0b06-7a41-4b6c-92f2-5e7e9bbadeb9|60.475161987041034|59.035277177825776|android|1891.0MB|50.718161807363416|{"type":"script","script":"stroop","trialnum":"10","startdelay":"1000","studytime":"3000","practice":"no","leftcorrectperc":"50","instructions":"quick_instructions","defval_survey_pack_id":"StroopB","leftcorrect":"1","trialtype":"1"}|1|1|10|1|0|true|stroop|705|700|0|3000|1|2|cong|no|635|1|{"GameEngine.js":"0c094384a8de4afa9861019fe247a550","Tools.js":"6c811a0fbb6f459fbd564b4788745f51","GList.js":"f59017e34743ec832f2ab4f5db57d10c","KTime.js":"ba6fc878b489aaefa35702ebc8f3d103","ErrorMan.js":"16f2928a391f50cf7b4490f302d3ff3f","GImage.js":"d93ca0496bdb3b9a6f15bdbd34db60ba","GColor.js":"10d65f23c815938f3191d18ec16dc2ac","stroop.js":"3682032a94a733ddb757c331a1de2b6f","Entity.js":"28a8361005a6db76408dcc5af9403483","KPosition.js":"13ae0a9b307740c9c93598bd0c683aa6","KAlpha.js":"6648736ab78d6600002ef4d6411270aa","Sprite.js":"c44178584e0bb6d9d474687c6b538f43","GBox.js":"addf6567a2dd4e0b967395c1733dce04","GButton.js":"62d972835a2f3952a212ebe917507fe3","GImage_Create.js":"515d416ed6077763b7948217c1df56b0","ZipReader.js":"d7aa55d618c22498e786a4b32b05cdd0","KFile.js":"d8e5c4e82ac859b480024783617e8f57","KReader.js":"f5a263bf4863aea23517f917fd969ddf","KWriter.js":"d9315c7c0596d7757e962ad67bbbf722","stroop.json":"7d369627b082062004f03e79db06c5e1","GameRunner.js":"33f18fd874a180504eaee08fce10d152","KTrigger.js":"5aeae1774d04509ab24cb9d08d0fa01d","GMap.js":"7bf21ec7ecf4ce0725fd9dea6b56c106","GameParams.js":"eb1f2af97c8844ca1042d3d695139dfd","Trial.js":"0a7180ddb548b09c7096d6066af9b3d4"}|{"":"-1"}|.|.|.|.|.|.|.|.|.|.
stroop|stroop|script|0929b01d1cb39b37fb9be25af33b87ff|9999|c2a764c3-383b-4a50-a41c-04e10b01500d|4|afa53c27-fa86-4599-8a02-7a7f2b3bd85c|2021/10/06 10:41:16|c68fe399-498d-44ca-a172-f055ad0d683c|59.88348462267985|58.66413765072483|android|1856.0MB|49.7797762786694|{"type":"script","script":"stroop","trialnum":"10","startdelay":"1000","studytime":"3000","practice":"no","leftcorrectperc":"50","instructions":"quick_instructions","defval_survey_pack_id":"StroopB","leftcorrect":"1","trialtype":"0"}|1|1|1|1|0|true|stroop|818|800|0|3000|1|2|incong|no|2283|1|{"GameEngine.js":"0c094384a8de4afa9861019fe247a550","Tools.js":"6c811a0fbb6f459fbd564b4788745f51","GList.js":"f59017e34743ec832f2ab4f5db57d10c","KTime.js":"ba6fc878b489aaefa35702ebc8f3d103","ErrorMan.js":"16f2928a391f50cf7b4490f302d3ff3f","GImage.js":"d93ca0496bdb3b9a6f15bdbd34db60ba","GColor.js":"10d65f23c815938f3191d18ec16dc2ac","stroop.js":"3682032a94a733ddb757c331a1de2b6f","Entity.js":"28a8361005a6db76408dcc5af9403483","KPosition.js":"13ae0a9b307740c9c93598bd0c683aa6","KAlpha.js":"6648736ab78d6600002ef4d6411270aa","Sprite.js":"c44178584e0bb6d9d474687c6b538f43","GBox.js":"addf6567a2dd4e0b967395c1733dce04","GButton.js":"62d972835a2f3952a212ebe917507fe3","GImage_Create.js":"515d416ed6077763b7948217c1df56b0","ZipReader.js":"d7aa55d618c22498e786a4b32b05cdd0","KFile.js":"d8e5c4e82ac859b480024783617e8f57","KReader.js":"f5a263bf4863aea23517f917fd969ddf","KWriter.js":"d9315c7c0596d7757e962ad67bbbf722","stroop.json":"7d369627b082062004f03e79db06c5e1","GameRunner.js":"33f18fd874a180504eaee08fce10d152","KTrigger.js":"5aeae1774d04509ab24cb9d08d0fa01d","GMap.js":"7bf21ec7ecf4ce0725fd9dea6b56c106","GameParams.js":"eb1f2af97c8844ca1042d3d695139dfd","Trial.js":"0a7180ddb548b09c7096d6066af9b3d4"}|{"":"-1"}|.|.|.|.|.|.|.|.|.|.
stroop|stroop|script|0929b01d1cb39b37fb9be25af33b87ff|9999|c2a764c3-383b-4a50-a41c-04e10b01500d|4|afa53c27-fa86-4599-8a02-7a7f2b3bd85c|2021/10/06 10:41:18|f0b0a7a4-2a04-4b23-b0b0-d3a013f3b2a3|60.06160164271047|59.034907597535934|android|1857.0MB|49.80553711340422|{"type":"script","script":"stroop","trialnum":"10","startdelay":"1000","studytime":"3000","practice":"no","leftcorrectperc":"50","instructions":"quick_instructions","defval_survey_pack_id":"StroopB","leftcorrect":"0","trialtype":"0"}|1|1|2|1|0|true|stroop|707|700|0|3000|0|4|incong|yes|1202|1|{"GameEngine.js":"0c094384a8de4afa9861019fe247a550","Tools.js":"6c811a0fbb6f459fbd564b4788745f51","GList.js":"f59017e34743ec832f2ab4f5db57d10c","KTime.js":"ba6fc878b489aaefa35702ebc8f3d103","ErrorMan.js":"16f2928a391f50cf7b4490f302d3ff3f","GImage.js":"d93ca0496bdb3b9a6f15bdbd34db60ba","GColor.js":"10d65f23c815938f3191d18ec16dc2ac","stroop.js":"3682032a94a733ddb757c331a1de2b6f","Entity.js":"28a8361005a6db76408dcc5af9403483","KPosition.js":"13ae0a9b307740c9c93598bd0c683aa6","KAlpha.js":"6648736ab78d6600002ef4d6411270aa","Sprite.js":"c44178584e0bb6d9d474687c6b538f43","GBox.js":"addf6567a2dd4e0b967395c1733dce04","GButton.js":"62d972835a2f3952a212ebe917507fe3","GImage_Create.js":"515d416ed6077763b7948217c1df56b0","ZipReader.js":"d7aa55d618c22498e786a4b32b05cdd0","KFile.js":"d8e5c4e82ac859b480024783617e8f57","KReader.js":"f5a263bf4863aea23517f917fd969ddf","KWriter.js":"d9315c7c0596d7757e962ad67bbbf722","stroop.json":"7d369627b082062004f03e79db06c5e1","GameRunner.js":"33f18fd874a180504eaee08fce10d152","KTrigger.js":"5aeae1774d04509ab24cb9d08d0fa01d","GMap.js":"7bf21ec7ecf4ce0725fd9dea6b56c106","GameParams.js":"eb1f2af97c8844ca1042d3d695139dfd","Trial.js":"0a7180ddb548b09c7096d6066af9b3d4"}|{"":"-1"}|.|.|.|.|.|.|.|.|.|.
stroop|stroop|script|0929b01d1cb39b37fb9be25af33b87ff|9999|c2a764c3-383b-4a50-a41c-04e10b01500d|4|afa53c27-fa86-4599-8a02-7a7f2b3bd85c|2021/10/06 10:41:21|61da7a16-e20c-45ee-bb0d-70f11eb5a3e3|59.97334517992004|59.084851177254556|android|1858.0MB|49.81653259164469|{"type":"script","script":"stroop","trialnum":"10","startdelay":"1000","studytime":"3000","practice":"no","leftcorrectperc":"50","instructions":"quick_instructions","defval_survey_pack_id":"StroopB","leftcorrect":"1","trialtype":"0"}|1|1|3|1|0|true|stroop|1008|1000|0|3000|1|3|incong|no|1200|1|{"GameEngine.js":"0c094384a8de4afa9861019fe247a550","Tools.js":"6c811a0fbb6f459fbd564b4788745f51","GList.js":"f59017e34743ec832f2ab4f5db57d10c","KTime.js":"ba6fc878b489aaefa35702ebc8f3d103","ErrorMan.js":"16f2928a391f50cf7b4490f302d3ff3f","GImage.js":"d93ca0496bdb3b9a6f15bdbd34db60ba","GColor.js":"10d65f23c815938f3191d18ec16dc2ac","stroop.js":"3682032a94a733ddb757c331a1de2b6f","Entity.js":"28a8361005a6db76408dcc5af9403483","KPosition.js":"13ae0a9b307740c9c93598bd0c683aa6","KAlpha.js":"6648736ab78d6600002ef4d6411270aa","Sprite.js":"c44178584e0bb6d9d474687c6b538f43","GBox.js":"addf6567a2dd4e0b967395c1733dce04","GButton.js":"62d972835a2f3952a212ebe917507fe3","GImage_Create.js":"515d416ed6077763b7948217c1df56b0","ZipReader.js":"d7aa55d618c22498e786a4b32b05cdd0","KFile.js":"d8e5c4e82ac859b480024783617e8f57","KReader.js":"f5a263bf4863aea23517f917fd969ddf","KWriter.js":"d9315c7c0596d7757e962ad67bbbf722","stroop.json":"7d369627b082062004f03e79db06c5e1","GameRunner.js":"33f18fd874a180504eaee08fce10d152","KTrigger.js":"5aeae1774d04509ab24cb9d08d0fa01d","GMap.js":"7bf21ec7ecf4ce0725fd9dea6b56c106","GameParams.js":"eb1f2af97c8844ca1042d3d695139dfd","Trial.js":"0a7180ddb548b09c7096d6066af9b3d4"}|{"":"-1"}|.|.|.|.|.|.|.|.|.|.
stroop|stroop|script|0929b01d1cb39b37fb9be25af33b87ff|9999|c2a764c3-383b-4a50-a41c-04e10b01500d|4|afa53c27-fa86-4599-8a02-7a7f2b3bd85c|2021/10/06 10:41:23|723a8db3-d235-490d-a6bf-179ab538156e|59.907834101382484|58.85363357215967|android|1857.0MB|49.802919142394586|{"type":"script","script":"stroop","trialnum":"10","startdelay":"1000","studytime":"3000","practice":"no","leftcorrectperc":"50","instructions":"quick_instructions","defval_survey_pack_id":"StroopB","leftcorrect":"0","trialtype":"1"}|1|1|4|1|0|true|stroop|1003|1000|0|3000|0|4|cong|yes|904|1|{"GameEngine.js":"0c094384a8de4afa9861019fe247a550","Tools.js":"6c811a0fbb6f459fbd564b4788745f51","GList.js":"f59017e34743ec832f2ab4f5db57d10c","KTime.js":"ba6fc878b489aaefa35702ebc8f3d103","ErrorMan.js":"16f2928a391f50cf7b4490f302d3ff3f","GImage.js":"d93ca0496bdb3b9a6f15bdbd34db60ba","GColor.js":"10d65f23c815938f3191d18ec16dc2ac","stroop.js":"3682032a94a733ddb757c331a1de2b6f","Entity.js":"28a8361005a6db76408dcc5af9403483","KPosition.js":"13ae0a9b307740c9c93598bd0c683aa6","KAlpha.js":"6648736ab78d6600002ef4d6411270aa","Sprite.js":"c44178584e0bb6d9d474687c6b538f43","GBox.js":"addf6567a2dd4e0b967395c1733dce04","GButton.js":"62d972835a2f3952a212ebe917507fe3","GImage_Create.js":"515d416ed6077763b7948217c1df56b0","ZipReader.js":"d7aa55d618c22498e786a4b32b05cdd0","KFile.js":"d8e5c4e82ac859b480024783617e8f57","KReader.js":"f5a263bf4863aea23517f917fd969ddf","KWriter.js":"d9315c7c0596d7757e962ad67bbbf722","stroop.json":"7d369627b082062004f03e79db06c5e1","GameRunner.js":"33f18fd874a180504eaee08fce10d152","KTrigger.js":"5aeae1774d04509ab24cb9d08d0fa01d","GMap.js":"7bf21ec7ecf4ce0725fd9dea6b56c106","GameParams.js":"eb1f2af97c8844ca1042d3d695139dfd","Trial.js":"0a7180ddb548b09c7096d6066af9b3d4"}|{"":"-1"}|.|.|.|.|.|.|.|.|.|.
stroop|stroop|script|0929b01d1cb39b37fb9be25af33b87ff|9999|c2a764c3-383b-4a50-a41c-04e10b01500d|4|afa53c27-fa86-4599-8a02-7a7f2b3bd85c|2021/10/06 10:41:25|16112a8f-d1c9-4890-9b80-fa44691a7e86|60.046189376443415|59.122401847575055|android|1857.0MB|49.806793739488846|{"type":"script","script":"stroop","trialnum":"10","startdelay":"1000","studytime":"3000","practice":"no","leftcorrectperc":"50","instructions":"quick_instructions","defval_survey_pack_id":"StroopB","leftcorrect":"0","trialtype":"0"}|1|1|5|1|0|true|stroop|905|900|0|3000|0|0|incong|yes|1216|1|{"GameEngine.js":"0c094384a8de4afa9861019fe247a550","Tools.js":"6c811a0fbb6f459fbd564b4788745f51","GList.js":"f59017e34743ec832f2ab4f5db57d10c","KTime.js":"ba6fc878b489aaefa35702ebc8f3d103","ErrorMan.js":"16f2928a391f50cf7b4490f302d3ff3f","GImage.js":"d93ca0496bdb3b9a6f15bdbd34db60ba","GColor.js":"10d65f23c815938f3191d18ec16dc2ac","stroop.js":"3682032a94a733ddb757c331a1de2b6f","Entity.js":"28a8361005a6db76408dcc5af9403483","KPosition.js":"13ae0a9b307740c9c93598bd0c683aa6","KAlpha.js":"6648736ab78d6600002ef4d6411270aa","Sprite.js":"c44178584e0bb6d9d474687c6b538f43","GBox.js":"addf6567a2dd4e0b967395c1733dce04","GButton.js":"62d972835a2f3952a212ebe917507fe3","GImage_Create.js":"515d416ed6077763b7948217c1df56b0","ZipReader.js":"d7aa55d618c22498e786a4b32b05cdd0","KFile.js":"d8e5c4e82ac859b480024783617e8f57","KReader.js":"f5a263bf4863aea23517f917fd969ddf","KWriter.js":"d9315c7c0596d7757e962ad67bbbf722","stroop.json":"7d369627b082062004f03e79db06c5e1","GameRunner.js":"33f18fd874a180504eaee08fce10d152","KTrigger.js":"5aeae1774d04509ab24cb9d08d0fa01d","GMap.js":"7bf21ec7ecf4ce0725fd9dea6b56c106","GameParams.js":"eb1f2af97c8844ca1042d3d695139dfd","Trial.js":"0a7180ddb548b09c7096d6066af9b3d4"}|{"":"-1"}|.|.|.|.|.|.|.|.|.|.
stroop|stroop|script|0929b01d1cb39b37fb9be25af33b87ff|9999|c2a764c3-383b-4a50-a41c-04e10b01500d|4|afa53c27-fa86-4599-8a02-7a7f2b3bd85c|2021/10/06 10:41:27|d2ef2ffc-be46-4b6e-a2f8-676c22ec8f04|60.27253668763103|58.700209643605874|android|1858.0MB|49.81129664962542|{"type":"script","script":"stroop","trialnum":"10","startdelay":"1000","studytime":"3000","practice":"no","leftcorrectperc":"50","instructions":"quick_instructions","defval_survey_pack_id":"StroopB","leftcorrect":"1","trialtype":"1"}|1|1|6|1|0|true|stroop|911|900|0|3000|1|5|cong|no|950|1|{"GameEngine.js":"0c094384a8de4afa9861019fe247a550","Tools.js":"6c811a0fbb6f459fbd564b4788745f51","GList.js":"f59017e34743ec832f2ab4f5db57d10c","KTime.js":"ba6fc878b489aaefa35702ebc8f3d103","ErrorMan.js":"16f2928a391f50cf7b4490f302d3ff3f","GImage.js":"d93ca0496bdb3b9a6f15bdbd34db60ba","GColor.js":"10d65f23c815938f3191d18ec16dc2ac","stroop.js":"3682032a94a733ddb757c331a1de2b6f","Entity.js":"28a8361005a6db76408dcc5af9403483","KPosition.js":"13ae0a9b307740c9c93598bd0c683aa6","KAlpha.js":"6648736ab78d6600002ef4d6411270aa","Sprite.js":"c44178584e0bb6d9d474687c6b538f43","GBox.js":"addf6567a2dd4e0b967395c1733dce04","GButton.js":"62d972835a2f3952a212ebe917507fe3","GImage_Create.js":"515d416ed6077763b7948217c1df56b0","ZipReader.js":"d7aa55d618c22498e786a4b32b05cdd0","KFile.js":"d8e5c4e82ac859b480024783617e8f57","KReader.js":"f5a263bf4863aea23517f917fd969ddf","KWriter.js":"d9315c7c0596d7757e962ad67bbbf722","stroop.json":"7d369627b082062004f03e79db06c5e1","GameRunner.js":"33f18fd874a180504eaee08fce10d152","KTrigger.js":"5aeae1774d04509ab24cb9d08d0fa01d","GMap.js":"7bf21ec7ecf4ce0725fd9dea6b56c106","GameParams.js":"eb1f2af97c8844ca1042d3d695139dfd","Trial.js":"0a7180ddb548b09c7096d6066af9b3d4"}|{"":"-1"}|.|.|.|.|.|.|.|.|.|.
stroop|stroop|script|0929b01d1cb39b37fb9be25af33b87ff|9999|c2a764c3-383b-4a50-a41c-04e10b01500d|4|afa53c27-fa86-4599-8a02-7a7f2b3bd85c|2021/10/06 10:41:28|c86a6a31-1919-49be-95b9-612059346dee|59.701492537313435|59.1044776119403|android|1857.0MB|49.807317333690776|{"type":"script","script":"stroop","trialnum":"10","startdelay":"1000","studytime":"3000","practice":"no","leftcorrectperc":"50","instructions":"quick_instructions","defval_survey_pack_id":"StroopB","leftcorrect":"0","trialtype":"1"}|1|1|7|1|0|true|stroop|715|700|0|3000|0|4|cong|yes|918|1|{"GameEngine.js":"0c094384a8de4afa9861019fe247a550","Tools.js":"6c811a0fbb6f459fbd564b4788745f51","GList.js":"f59017e34743ec832f2ab4f5db57d10c","KTime.js":"ba6fc878b489aaefa35702ebc8f3d103","ErrorMan.js":"16f2928a391f50cf7b4490f302d3ff3f","GImage.js":"d93ca0496bdb3b9a6f15bdbd34db60ba","GColor.js":"10d65f23c815938f3191d18ec16dc2ac","stroop.js":"3682032a94a733ddb757c331a1de2b6f","Entity.js":"28a8361005a6db76408dcc5af9403483","KPosition.js":"13ae0a9b307740c9c93598bd0c683aa6","KAlpha.js":"6648736ab78d6600002ef4d6411270aa","Sprite.js":"c44178584e0bb6d9d474687c6b538f43","GBox.js":"addf6567a2dd4e0b967395c1733dce04","GButton.js":"62d972835a2f3952a212ebe917507fe3","GImage_Create.js":"515d416ed6077763b7948217c1df56b0","ZipReader.js":"d7aa55d618c22498e786a4b32b05cdd0","KFile.js":"d8e5c4e82ac859b480024783617e8f57","KReader.js":"f5a263bf4863aea23517f917fd969ddf","KWriter.js":"d9315c7c0596d7757e962ad67bbbf722","stroop.json":"7d369627b082062004f03e79db06c5e1","GameRunner.js":"33f18fd874a180504eaee08fce10d152","KTrigger.js":"5aeae1774d04509ab24cb9d08d0fa01d","GMap.js":"7bf21ec7ecf4ce0725fd9dea6b56c106","GameParams.js":"eb1f2af97c8844ca1042d3d695139dfd","Trial.js":"0a7180ddb548b09c7096d6066af9b3d4"}|{"":"-1"}|.|.|.|.|.|.|.|.|.|.
stroop|stroop|script|0929b01d1cb39b37fb9be25af33b87ff|9999|c2a764c3-383b-4a50-a41c-04e10b01500d|4|afa53c27-fa86-4599-8a02-7a7f2b3bd85c|2021/10/06 10:41:31|251e67dd-2bfc-47d9-b762-dc706efff190|60.04415011037527|59.16114790286976|android|1858.0MB|49.810668336583106|{"type":"script","script":"stroop","trialnum":"10","startdelay":"1000","studytime":"3000","practice":"no","leftcorrectperc":"50","instructions":"quick_instructions","defval_survey_pack_id":"StroopB","leftcorrect":"0","trialtype":"1"}|1|1|8|1|0|true|stroop|802|800|0|3000|0|2|cong|yes|1426|1|{"GameEngine.js":"0c094384a8de4afa9861019fe247a550","Tools.js":"6c811a0fbb6f459fbd564b4788745f51","GList.js":"f59017e34743ec832f2ab4f5db57d10c","KTime.js":"ba6fc878b489aaefa35702ebc8f3d103","ErrorMan.js":"16f2928a391f50cf7b4490f302d3ff3f","GImage.js":"d93ca0496bdb3b9a6f15bdbd34db60ba","GColor.js":"10d65f23c815938f3191d18ec16dc2ac","stroop.js":"3682032a94a733ddb757c331a1de2b6f","Entity.js":"28a8361005a6db76408dcc5af9403483","KPosition.js":"13ae0a9b307740c9c93598bd0c683aa6","KAlpha.js":"6648736ab78d6600002ef4d6411270aa","Sprite.js":"c44178584e0bb6d9d474687c6b538f43","GBox.js":"addf6567a2dd4e0b967395c1733dce04","GButton.js":"62d972835a2f3952a212ebe917507fe3","GImage_Create.js":"515d416ed6077763b7948217c1df56b0","ZipReader.js":"d7aa55d618c22498e786a4b32b05cdd0","KFile.js":"d8e5c4e82ac859b480024783617e8f57","KReader.js":"f5a263bf4863aea23517f917fd969ddf","KWriter.js":"d9315c7c0596d7757e962ad67bbbf722","stroop.json":"7d369627b082062004f03e79db06c5e1","GameRunner.js":"33f18fd874a180504eaee08fce10d152","KTrigger.js":"5aeae1774d04509ab24cb9d08d0fa01d","GMap.js":"7bf21ec7ecf4ce0725fd9dea6b56c106","GameParams.js":"eb1f2af97c8844ca1042d3d695139dfd","Trial.js":"0a7180ddb548b09c7096d6066af9b3d4"}|{"":"-1"}|.|.|.|.|.|.|.|.|.|.
stroop|stroop|script|0929b01d1cb39b37fb9be25af33b87ff|9999|c2a764c3-383b-4a50-a41c-04e10b01500d|4|afa53c27-fa86-4599-8a02-7a7f2b3bd85c|2021/10/06 10:41:32|3e1d68cb-c660-4d29-8354-0c2336349e2c|60.113154172560115|59.32203389830509|android|1856.0MB|49.78155649895595|{"type":"script","script":"stroop","trialnum":"10","startdelay":"1000","studytime":"3000","practice":"no","leftcorrectperc":"50","instructions":"quick_instructions","defval_survey_pack_id":"StroopB","leftcorrect":"1","trialtype":"1"}|1|1|9|1|0|true|stroop|611|600|0|3000|1|0|cong|no|770|1|{"GameEngine.js":"0c094384a8de4afa9861019fe247a550","Tools.js":"6c811a0fbb6f459fbd564b4788745f51","GList.js":"f59017e34743ec832f2ab4f5db57d10c","KTime.js":"ba6fc878b489aaefa35702ebc8f3d103","ErrorMan.js":"16f2928a391f50cf7b4490f302d3ff3f","GImage.js":"d93ca0496bdb3b9a6f15bdbd34db60ba","GColor.js":"10d65f23c815938f3191d18ec16dc2ac","stroop.js":"3682032a94a733ddb757c331a1de2b6f","Entity.js":"28a8361005a6db76408dcc5af9403483","KPosition.js":"13ae0a9b307740c9c93598bd0c683aa6","KAlpha.js":"6648736ab78d6600002ef4d6411270aa","Sprite.js":"c44178584e0bb6d9d474687c6b538f43","GBox.js":"addf6567a2dd4e0b967395c1733dce04","GButton.js":"62d972835a2f3952a212ebe917507fe3","GImage_Create.js":"515d416ed6077763b7948217c1df56b0","ZipReader.js":"d7aa55d618c22498e786a4b32b05cdd0","KFile.js":"d8e5c4e82ac859b480024783617e8f57","KReader.js":"f5a263bf4863aea23517f917fd969ddf","KWriter.js":"d9315c7c0596d7757e962ad67bbbf722","stroop.json":"7d369627b082062004f03e79db06c5e1","GameRunner.js":"33f18fd874a180504eaee08fce10d152","KTrigger.js":"5aeae1774d04509ab24cb9d08d0fa01d","GMap.js":"7bf21ec7ecf4ce0725fd9dea6b56c106","GameParams.js":"eb1f2af97c8844ca1042d3d695139dfd","Trial.js":"0a7180ddb548b09c7096d6066af9b3d4"}|{"":"-1"}|.|.|.|.|.|.|.|.|.|.
stroop|stroop|script|0929b01d1cb39b37fb9be25af33b87ff|9999|c2a764c3-383b-4a50-a41c-04e10b01500d|4|afa53c27-fa86-4599-8a02-7a7f2b3bd85c|2021/10/06 10:41:34|b38fbba7-49e0-4368-a3f1-7659599fc000|59.98868138087154|59.42275042444822|android|1858.0MB|49.81318158875236|{"type":"script","script":"stroop","trialnum":"10","startdelay":"1000","studytime":"3000","practice":"no","leftcorrectperc":"50","instructions":"quick_instructions","defval_survey_pack_id":"StroopB","leftcorrect":"1","trialtype":"0"}|1|1|10|1|0|true|stroop|815|800|0|3000|1|2|incong|no|901|1|{"GameEngine.js":"0c094384a8de4afa9861019fe247a550","Tools.js":"6c811a0fbb6f459fbd564b4788745f51","GList.js":"f59017e34743ec832f2ab4f5db57d10c","KTime.js":"ba6fc878b489aaefa35702ebc8f3d103","ErrorMan.js":"16f2928a391f50cf7b4490f302d3ff3f","GImage.js":"d93ca0496bdb3b9a6f15bdbd34db60ba","GColor.js":"10d65f23c815938f3191d18ec16dc2ac","stroop.js":"3682032a94a733ddb757c331a1de2b6f","Entity.js":"28a8361005a6db76408dcc5af9403483","KPosition.js":"13ae0a9b307740c9c93598bd0c683aa6","KAlpha.js":"6648736ab78d6600002ef4d6411270aa","Sprite.js":"c44178584e0bb6d9d474687c6b538f43","GBox.js":"addf6567a2dd4e0b967395c1733dce04","GButton.js":"62d972835a2f3952a212ebe917507fe3","GImage_Create.js":"515d416ed6077763b7948217c1df56b0","ZipReader.js":"d7aa55d618c22498e786a4b32b05cdd0","KFile.js":"d8e5c4e82ac859b480024783617e8f57","KReader.js":"f5a263bf4863aea23517f917fd969ddf","KWriter.js":"d9315c7c0596d7757e962ad67bbbf722","stroop.json":"7d369627b082062004f03e79db06c5e1","GameRunner.js":"33f18fd874a180504eaee08fce10d152","KTrigger.js":"5aeae1774d04509ab24cb9d08d0fa01d","GMap.js":"7bf21ec7ecf4ce0725fd9dea6b56c106","GameParams.js":"eb1f2af97c8844ca1042d3d695139dfd","Trial.js":"0a7180ddb548b09c7096d6066af9b3d4"}|{"":"-1"}|.|.|.|.|.|.|.|.|.|.
stroop|stroop|script|69d4090a300dba3d5a976ccb933f7cfa|9999|4491ce41-b092-4898-b5a0-ca2f91a5fb48|11|915b33cb-24d2-4241-9c27-ee04e36e0262|2021/10/06 10:43:25|ff0968f4-cdea-4811-a670-7d66ff415495|57.3521980798383|57.3521980798383|ios|NA|NA|{"instructions":"quick_instructions","startdelay":"1000","studytime":"3000","script":"stroop","leftcorrect":"1","leftcorrectperc":"50","trialtype":"0","trialnum":"10","type":"script","practice":"no"}|1|0|1|1|0|true|stroop|800|800|0|3000|1|4|incong|no|1112|1|{"KWriter.js":"d9315c7c0596d7757e962ad67bbbf722","Entity.js":"28a8361005a6db76408dcc5af9403483","KTrigger.js":"5aeae1774d04509ab24cb9d08d0fa01d","GMap.js":"7bf21ec7ecf4ce0725fd9dea6b56c106","KReader.js":"f5a263bf4863aea23517f917fd969ddf","KTime.js":"ba6fc878b489aaefa35702ebc8f3d103","iosScriptHelper.js":"3c70f9d2aa7011e89f530fb689aae7e3","stroop.js":"93fe2cc5058db38c22d8dcd8a053ed56","GButton.js":"62d972835a2f3952a212ebe917507fe3","ErrorMan.js":"16f2928a391f50cf7b4490f302d3ff3f","GColor.js":"10d65f23c815938f3191d18ec16dc2ac","Sprite.js":"c44178584e0bb6d9d474687c6b538f43","KFile.js":"d8e5c4e82ac859b480024783617e8f57","Trial.js":"0a7180ddb548b09c7096d6066af9b3d4","GameEngine.js":"0c094384a8de4afa9861019fe247a550","KPosition.js":"13ae0a9b307740c9c93598bd0c683aa6","GBox.js":"addf6567a2dd4e0b967395c1733dce04","GImage_Create.js":"515d416ed6077763b7948217c1df56b0","GList.js":"f59017e34743ec832f2ab4f5db57d10c","KAlpha.js":"6648736ab78d6600002ef4d6411270aa","GameParams.js":"eb1f2af97c8844ca1042d3d695139dfd","Tools.js":"6c811a0fbb6f459fbd564b4788745f51","GImage.js":"d93ca0496bdb3b9a6f15bdbd34db60ba","GameRunner.js":"33f18fd874a180504eaee08fce10d152","ZipReader.js":"d7aa55d618c22498e786a4b32b05cdd0"}|{}|.|.|.|.|.|.|.|.|.|.
stroop|stroop|script|69d4090a300dba3d5a976ccb933f7cfa|9999|4491ce41-b092-4898-b5a0-ca2f91a5fb48|11|915b33cb-24d2-4241-9c27-ee04e36e0262|2021/10/06 10:43:28|f01e0b62-f1b7-40f4-8426-d37b7e6dde26|59.9095704596835|59.9095704596835|ios|NA|NA|{"trialnum":"10","leftcorrect":"0","studytime":"3000","practice":"no","startdelay":"1000","script":"stroop","trialtype":"1","leftcorrectperc":"50","instructions":"quick_instructions","type":"script"}|1|0|2|1|0|true|stroop|1015|1000|0|3000|0|1|cong|yes|1583|1|{"KWriter.js":"d9315c7c0596d7757e962ad67bbbf722","Entity.js":"28a8361005a6db76408dcc5af9403483","KTrigger.js":"5aeae1774d04509ab24cb9d08d0fa01d","GMap.js":"7bf21ec7ecf4ce0725fd9dea6b56c106","KReader.js":"f5a263bf4863aea23517f917fd969ddf","KTime.js":"ba6fc878b489aaefa35702ebc8f3d103","iosScriptHelper.js":"3c70f9d2aa7011e89f530fb689aae7e3","stroop.js":"93fe2cc5058db38c22d8dcd8a053ed56","GButton.js":"62d972835a2f3952a212ebe917507fe3","ErrorMan.js":"16f2928a391f50cf7b4490f302d3ff3f","GColor.js":"10d65f23c815938f3191d18ec16dc2ac","Sprite.js":"c44178584e0bb6d9d474687c6b538f43","KFile.js":"d8e5c4e82ac859b480024783617e8f57","Trial.js":"0a7180ddb548b09c7096d6066af9b3d4","GameEngine.js":"0c094384a8de4afa9861019fe247a550","KPosition.js":"13ae0a9b307740c9c93598bd0c683aa6","GBox.js":"addf6567a2dd4e0b967395c1733dce04","GImage_Create.js":"515d416ed6077763b7948217c1df56b0","GList.js":"f59017e34743ec832f2ab4f5db57d10c","KAlpha.js":"6648736ab78d6600002ef4d6411270aa","GameParams.js":"eb1f2af97c8844ca1042d3d695139dfd","Tools.js":"6c811a0fbb6f459fbd564b4788745f51","GImage.js":"d93ca0496bdb3b9a6f15bdbd34db60ba","GameRunner.js":"33f18fd874a180504eaee08fce10d152","ZipReader.js":"d7aa55d618c22498e786a4b32b05cdd0"}|{}|.|.|.|.|.|.|.|.|.|.
stroop|stroop|script|69d4090a300dba3d5a976ccb933f7cfa|9999|4491ce41-b092-4898-b5a0-ca2f91a5fb48|11|915b33cb-24d2-4241-9c27-ee04e36e0262|2021/10/06 10:43:30|1dbeadf2-9395-48dd-8fea-24ec4b8958d0|59.898045879354285|59.898045879354285|ios|NA|NA|{"studytime":"3000","script":"stroop","trialnum":"10","type":"script","startdelay":"1000","instructions":"quick_instructions","practice":"no","leftcorrectperc":"50","trialtype":"1","leftcorrect":"0"}|1|0|3|1|0|true|stroop|816|800|0|3000|0|5|cong|yes|1483|1|{"KWriter.js":"d9315c7c0596d7757e962ad67bbbf722","Entity.js":"28a8361005a6db76408dcc5af9403483","KTrigger.js":"5aeae1774d04509ab24cb9d08d0fa01d","GMap.js":"7bf21ec7ecf4ce0725fd9dea6b56c106","KReader.js":"f5a263bf4863aea23517f917fd969ddf","KTime.js":"ba6fc878b489aaefa35702ebc8f3d103","iosScriptHelper.js":"3c70f9d2aa7011e89f530fb689aae7e3","stroop.js":"93fe2cc5058db38c22d8dcd8a053ed56","GButton.js":"62d972835a2f3952a212ebe917507fe3","ErrorMan.js":"16f2928a391f50cf7b4490f302d3ff3f","GColor.js":"10d65f23c815938f3191d18ec16dc2ac","Sprite.js":"c44178584e0bb6d9d474687c6b538f43","KFile.js":"d8e5c4e82ac859b480024783617e8f57","Trial.js":"0a7180ddb548b09c7096d6066af9b3d4","GameEngine.js":"0c094384a8de4afa9861019fe247a550","KPosition.js":"13ae0a9b307740c9c93598bd0c683aa6","GBox.js":"addf6567a2dd4e0b967395c1733dce04","GImage_Create.js":"515d416ed6077763b7948217c1df56b0","GList.js":"f59017e34743ec832f2ab4f5db57d10c","KAlpha.js":"6648736ab78d6600002ef4d6411270aa","GameParams.js":"eb1f2af97c8844ca1042d3d695139dfd","Tools.js":"6c811a0fbb6f459fbd564b4788745f51","GImage.js":"d93ca0496bdb3b9a6f15bdbd34db60ba","GameRunner.js":"33f18fd874a180504eaee08fce10d152","ZipReader.js":"d7aa55d618c22498e786a4b32b05cdd0"}|{}|.|.|.|.|.|.|.|.|.|.
stroop|stroop|script|69d4090a300dba3d5a976ccb933f7cfa|9999|4491ce41-b092-4898-b5a0-ca2f91a5fb48|11|915b33cb-24d2-4241-9c27-ee04e36e0262|2021/10/06 10:43:32|516c765b-9469-47c3-963e-da29d8db71b8|59.90338164251208|59.90338164251208|ios|NA|NA|{"studytime":"3000","script":"stroop","instructions":"quick_instructions","type":"script","startdelay":"1000","leftcorrectperc":"50","practice":"no","leftcorrect":"1","trialnum":"10","trialtype":"1"}|1|0|4|1|0|true|stroop|900|900|0|3000|1|1|cong|no|1108|1|{"KWriter.js":"d9315c7c0596d7757e962ad67bbbf722","Entity.js":"28a8361005a6db76408dcc5af9403483","KTrigger.js":"5aeae1774d04509ab24cb9d08d0fa01d","GMap.js":"7bf21ec7ecf4ce0725fd9dea6b56c106","KReader.js":"f5a263bf4863aea23517f917fd969ddf","KTime.js":"ba6fc878b489aaefa35702ebc8f3d103","iosScriptHelper.js":"3c70f9d2aa7011e89f530fb689aae7e3","stroop.js":"93fe2cc5058db38c22d8dcd8a053ed56","GButton.js":"62d972835a2f3952a212ebe917507fe3","ErrorMan.js":"16f2928a391f50cf7b4490f302d3ff3f","GColor.js":"10d65f23c815938f3191d18ec16dc2ac","Sprite.js":"c44178584e0bb6d9d474687c6b538f43","KFile.js":"d8e5c4e82ac859b480024783617e8f57","Trial.js":"0a7180ddb548b09c7096d6066af9b3d4","GameEngine.js":"0c094384a8de4afa9861019fe247a550","KPosition.js":"13ae0a9b307740c9c93598bd0c683aa6","GBox.js":"addf6567a2dd4e0b967395c1733dce04","GImage_Create.js":"515d416ed6077763b7948217c1df56b0","GList.js":"f59017e34743ec832f2ab4f5db57d10c","KAlpha.js":"6648736ab78d6600002ef4d6411270aa","GameParams.js":"eb1f2af97c8844ca1042d3d695139dfd","Tools.js":"6c811a0fbb6f459fbd564b4788745f51","GImage.js":"d93ca0496bdb3b9a6f15bdbd34db60ba","GameRunner.js":"33f18fd874a180504eaee08fce10d152","ZipReader.js":"d7aa55d618c22498e786a4b32b05cdd0"}|{}|.|.|.|.|.|.|.|.|.|.
stroop|stroop|script|69d4090a300dba3d5a976ccb933f7cfa|9999|4491ce41-b092-4898-b5a0-ca2f91a5fb48|11|915b33cb-24d2-4241-9c27-ee04e36e0262|2021/10/06 10:43:34|e9cda115-a8fc-4da2-af68-72fecb7100c9|59.85722130697419|59.85722130697419|ios|NA|NA|{"trialtype":"0","leftcorrectperc":"50","startdelay":"1000","leftcorrect":"1","practice":"no","script":"stroop","studytime":"3000","instructions":"quick_instructions","type":"script","trialnum":"10"}|1|0|5|1|0|true|stroop|916|900|0|3000|1|2|incong|no|849|1|{"KWriter.js":"d9315c7c0596d7757e962ad67bbbf722","Entity.js":"28a8361005a6db76408dcc5af9403483","KTrigger.js":"5aeae1774d04509ab24cb9d08d0fa01d","GMap.js":"7bf21ec7ecf4ce0725fd9dea6b56c106","KReader.js":"f5a263bf4863aea23517f917fd969ddf","KTime.js":"ba6fc878b489aaefa35702ebc8f3d103","iosScriptHelper.js":"3c70f9d2aa7011e89f530fb689aae7e3","stroop.js":"93fe2cc5058db38c22d8dcd8a053ed56","GButton.js":"62d972835a2f3952a212ebe917507fe3","ErrorMan.js":"16f2928a391f50cf7b4490f302d3ff3f","GColor.js":"10d65f23c815938f3191d18ec16dc2ac","Sprite.js":"c44178584e0bb6d9d474687c6b538f43","KFile.js":"d8e5c4e82ac859b480024783617e8f57","Trial.js":"0a7180ddb548b09c7096d6066af9b3d4","GameEngine.js":"0c094384a8de4afa9861019fe247a550","KPosition.js":"13ae0a9b307740c9c93598bd0c683aa6","GBox.js":"addf6567a2dd4e0b967395c1733dce04","GImage_Create.js":"515d416ed6077763b7948217c1df56b0","GList.js":"f59017e34743ec832f2ab4f5db57d10c","KAlpha.js":"6648736ab78d6600002ef4d6411270aa","GameParams.js":"eb1f2af97c8844ca1042d3d695139dfd","Tools.js":"6c811a0fbb6f459fbd564b4788745f51","GImage.js":"d93ca0496bdb3b9a6f15bdbd34db60ba","GameRunner.js":"33f18fd874a180504eaee08fce10d152","ZipReader.js":"d7aa55d618c22498e786a4b32b05cdd0"}|{}|.|.|.|.|.|.|.|.|.|.
stroop|stroop|script|69d4090a300dba3d5a976ccb933f7cfa|9999|4491ce41-b092-4898-b5a0-ca2f91a5fb48|11|915b33cb-24d2-4241-9c27-ee04e36e0262|2021/10/06 10:43:35|c373030b-acd6-427a-98e6-e10c91860132|59.7758405977584|59.7758405977584|ios|NA|NA|{"leftcorrect":"1","type":"script","studytime":"3000","trialtype":"0","trialnum":"10","instructions":"quick_instructions","startdelay":"1000","leftcorrectperc":"50","script":"stroop","practice":"no"}|1|0|6|1|0|true|stroop|800|800|0|3000|1|0|incong|no|750|1|{"KWriter.js":"d9315c7c0596d7757e962ad67bbbf722","Entity.js":"28a8361005a6db76408dcc5af9403483","KTrigger.js":"5aeae1774d04509ab24cb9d08d0fa01d","GMap.js":"7bf21ec7ecf4ce0725fd9dea6b56c106","KReader.js":"f5a263bf4863aea23517f917fd969ddf","KTime.js":"ba6fc878b489aaefa35702ebc8f3d103","iosScriptHelper.js":"3c70f9d2aa7011e89f530fb689aae7e3","stroop.js":"93fe2cc5058db38c22d8dcd8a053ed56","GButton.js":"62d972835a2f3952a212ebe917507fe3","ErrorMan.js":"16f2928a391f50cf7b4490f302d3ff3f","GColor.js":"10d65f23c815938f3191d18ec16dc2ac","Sprite.js":"c44178584e0bb6d9d474687c6b538f43","KFile.js":"d8e5c4e82ac859b480024783617e8f57","Trial.js":"0a7180ddb548b09c7096d6066af9b3d4","GameEngine.js":"0c094384a8de4afa9861019fe247a550","KPosition.js":"13ae0a9b307740c9c93598bd0c683aa6","GBox.js":"addf6567a2dd4e0b967395c1733dce04","GImage_Create.js":"515d416ed6077763b7948217c1df56b0","GList.js":"f59017e34743ec832f2ab4f5db57d10c","KAlpha.js":"6648736ab78d6600002ef4d6411270aa","GameParams.js":"eb1f2af97c8844ca1042d3d695139dfd","Tools.js":"6c811a0fbb6f459fbd564b4788745f51","GImage.js":"d93ca0496bdb3b9a6f15bdbd34db60ba","GameRunner.js":"33f18fd874a180504eaee08fce10d152","ZipReader.js":"d7aa55d618c22498e786a4b32b05cdd0"}|{}|.|.|.|.|.|.|.|.|.|.
stroop|stroop|script|69d4090a300dba3d5a976ccb933f7cfa|9999|4491ce41-b092-4898-b5a0-ca2f91a5fb48|11|915b33cb-24d2-4241-9c27-ee04e36e0262|2021/10/06 10:43:37|b8af5328-30a4-46b6-b344-36aa39c78c85|59.916117435590174|59.916117435590174|ios|NA|NA|{"trialtype":"1","leftcorrectperc":"50","startdelay":"1000","leftcorrect":"1","practice":"no","script":"stroop","studytime":"3000","instructions":"quick_instructions","type":"script","trialnum":"10"}|1|0|7|1|0|true|stroop|700|700|0|3000|1|5|cong|no|916|1|{"KWriter.js":"d9315c7c0596d7757e962ad67bbbf722","Entity.js":"28a8361005a6db76408dcc5af9403483","KTrigger.js":"5aeae1774d04509ab24cb9d08d0fa01d","GMap.js":"7bf21ec7ecf4ce0725fd9dea6b56c106","KReader.js":"f5a263bf4863aea23517f917fd969ddf","KTime.js":"ba6fc878b489aaefa35702ebc8f3d103","iosScriptHelper.js":"3c70f9d2aa7011e89f530fb689aae7e3","stroop.js":"93fe2cc5058db38c22d8dcd8a053ed56","GButton.js":"62d972835a2f3952a212ebe917507fe3","ErrorMan.js":"16f2928a391f50cf7b4490f302d3ff3f","GColor.js":"10d65f23c815938f3191d18ec16dc2ac","Sprite.js":"c44178584e0bb6d9d474687c6b538f43","KFile.js":"d8e5c4e82ac859b480024783617e8f57","Trial.js":"0a7180ddb548b09c7096d6066af9b3d4","GameEngine.js":"0c094384a8de4afa9861019fe247a550","KPosition.js":"13ae0a9b307740c9c93598bd0c683aa6","GBox.js":"addf6567a2dd4e0b967395c1733dce04","GImage_Create.js":"515d416ed6077763b7948217c1df56b0","GList.js":"f59017e34743ec832f2ab4f5db57d10c","KAlpha.js":"6648736ab78d6600002ef4d6411270aa","GameParams.js":"eb1f2af97c8844ca1042d3d695139dfd","Tools.js":"6c811a0fbb6f459fbd564b4788745f51","GImage.js":"d93ca0496bdb3b9a6f15bdbd34db60ba","GameRunner.js":"33f18fd874a180504eaee08fce10d152","ZipReader.js":"d7aa55d618c22498e786a4b32b05cdd0"}|{}|.|.|.|.|.|.|.|.|.|.
stroop|stroop|script|69d4090a300dba3d5a976ccb933f7cfa|9999|4491ce41-b092-4898-b5a0-ca2f91a5fb48|11|915b33cb-24d2-4241-9c27-ee04e36e0262|2021/10/06 10:43:39|95b237aa-49ee-4dd0-9c31-e3e4facb4e8c|59.79869745411486|59.79869745411486|ios|NA|NA|{"studytime":"3000","script":"stroop","instructions":"quick_instructions","trialtype":"0","leftcorrect":"0","leftcorrectperc":"50","type":"script","startdelay":"1000","trialnum":"10","practice":"no"}|1|0|8|1|0|true|stroop|700|700|0|3000|0|3|incong|yes|933|1|{"KWriter.js":"d9315c7c0596d7757e962ad67bbbf722","Entity.js":"28a8361005a6db76408dcc5af9403483","KTrigger.js":"5aeae1774d04509ab24cb9d08d0fa01d","GMap.js":"7bf21ec7ecf4ce0725fd9dea6b56c106","KReader.js":"f5a263bf4863aea23517f917fd969ddf","KTime.js":"ba6fc878b489aaefa35702ebc8f3d103","iosScriptHelper.js":"3c70f9d2aa7011e89f530fb689aae7e3","stroop.js":"93fe2cc5058db38c22d8dcd8a053ed56","GButton.js":"62d972835a2f3952a212ebe917507fe3","ErrorMan.js":"16f2928a391f50cf7b4490f302d3ff3f","GColor.js":"10d65f23c815938f3191d18ec16dc2ac","Sprite.js":"c44178584e0bb6d9d474687c6b538f43","KFile.js":"d8e5c4e82ac859b480024783617e8f57","Trial.js":"0a7180ddb548b09c7096d6066af9b3d4","GameEngine.js":"0c094384a8de4afa9861019fe247a550","KPosition.js":"13ae0a9b307740c9c93598bd0c683aa6","GBox.js":"addf6567a2dd4e0b967395c1733dce04","GImage_Create.js":"515d416ed6077763b7948217c1df56b0","GList.js":"f59017e34743ec832f2ab4f5db57d10c","KAlpha.js":"6648736ab78d6600002ef4d6411270aa","GameParams.js":"eb1f2af97c8844ca1042d3d695139dfd","Tools.js":"6c811a0fbb6f459fbd564b4788745f51","GImage.js":"d93ca0496bdb3b9a6f15bdbd34db60ba","GameRunner.js":"33f18fd874a180504eaee08fce10d152","ZipReader.js":"d7aa55d618c22498e786a4b32b05cdd0"}|{}|.|.|.|.|.|.|.|.|.|.
stroop|stroop|script|69d4090a300dba3d5a976ccb933f7cfa|9999|4491ce41-b092-4898-b5a0-ca2f91a5fb48|11|915b33cb-24d2-4241-9c27-ee04e36e0262|2021/10/06 10:43:40|ce6ff1f8-b4a1-4114-85e2-2662f982ab1a|59.80707395498393|59.80707395498393|ios|NA|NA|{"trialnum":"10","trialtype":"0","script":"stroop","type":"script","instructions":"quick_instructions","studytime":"3000","leftcorrect":"0","leftcorrectperc":"50","practice":"no","startdelay":"1000"}|1|0|9|1|0|true|stroop|700|700|0|3000|0|5|incong|yes|798|1|{"KWriter.js":"d9315c7c0596d7757e962ad67bbbf722","Entity.js":"28a8361005a6db76408dcc5af9403483","KTrigger.js":"5aeae1774d04509ab24cb9d08d0fa01d","GMap.js":"7bf21ec7ecf4ce0725fd9dea6b56c106","KReader.js":"f5a263bf4863aea23517f917fd969ddf","KTime.js":"ba6fc878b489aaefa35702ebc8f3d103","iosScriptHelper.js":"3c70f9d2aa7011e89f530fb689aae7e3","stroop.js":"93fe2cc5058db38c22d8dcd8a053ed56","GButton.js":"62d972835a2f3952a212ebe917507fe3","ErrorMan.js":"16f2928a391f50cf7b4490f302d3ff3f","GColor.js":"10d65f23c815938f3191d18ec16dc2ac","Sprite.js":"c44178584e0bb6d9d474687c6b538f43","KFile.js":"d8e5c4e82ac859b480024783617e8f57","Trial.js":"0a7180ddb548b09c7096d6066af9b3d4","GameEngine.js":"0c094384a8de4afa9861019fe247a550","KPosition.js":"13ae0a9b307740c9c93598bd0c683aa6","GBox.js":"addf6567a2dd4e0b967395c1733dce04","GImage_Create.js":"515d416ed6077763b7948217c1df56b0","GList.js":"f59017e34743ec832f2ab4f5db57d10c","KAlpha.js":"6648736ab78d6600002ef4d6411270aa","GameParams.js":"eb1f2af97c8844ca1042d3d695139dfd","Tools.js":"6c811a0fbb6f459fbd564b4788745f51","GImage.js":"d93ca0496bdb3b9a6f15bdbd34db60ba","GameRunner.js":"33f18fd874a180504eaee08fce10d152","ZipReader.js":"d7aa55d618c22498e786a4b32b05cdd0"}|{}|.|.|.|.|.|.|.|.|.|.
stroop|stroop|script|69d4090a300dba3d5a976ccb933f7cfa|9999|4491ce41-b092-4898-b5a0-ca2f91a5fb48|11|915b33cb-24d2-4241-9c27-ee04e36e0262|2021/10/06 10:43:42|5c5f0d54-68ae-4946-b821-74ec5f52a7ae|59.82905982905983|59.82905982905983|ios|NA|NA|{"script":"stroop","trialnum":"10","leftcorrect":"0","instructions":"quick_instructions","type":"script","startdelay":"1000","leftcorrectperc":"50","trialtype":"1","studytime":"3000","practice":"no"}|1|0|10|1|0|true|stroop|700|700|0|3000|1|4|cong|yes|649|0|{"KWriter.js":"d9315c7c0596d7757e962ad67bbbf722","Entity.js":"28a8361005a6db76408dcc5af9403483","KTrigger.js":"5aeae1774d04509ab24cb9d08d0fa01d","GMap.js":"7bf21ec7ecf4ce0725fd9dea6b56c106","KReader.js":"f5a263bf4863aea23517f917fd969ddf","KTime.js":"ba6fc878b489aaefa35702ebc8f3d103","iosScriptHelper.js":"3c70f9d2aa7011e89f530fb689aae7e3","stroop.js":"93fe2cc5058db38c22d8dcd8a053ed56","GButton.js":"62d972835a2f3952a212ebe917507fe3","ErrorMan.js":"16f2928a391f50cf7b4490f302d3ff3f","GColor.js":"10d65f23c815938f3191d18ec16dc2ac","Sprite.js":"c44178584e0bb6d9d474687c6b538f43","KFile.js":"d8e5c4e82ac859b480024783617e8f57","Trial.js":"0a7180ddb548b09c7096d6066af9b3d4","GameEngine.js":"0c094384a8de4afa9861019fe247a550","KPosition.js":"13ae0a9b307740c9c93598bd0c683aa6","GBox.js":"addf6567a2dd4e0b967395c1733dce04","GImage_Create.js":"515d416ed6077763b7948217c1df56b0","GList.js":"f59017e34743ec832f2ab4f5db57d10c","KAlpha.js":"6648736ab78d6600002ef4d6411270aa","GameParams.js":"eb1f2af97c8844ca1042d3d695139dfd","Tools.js":"6c811a0fbb6f459fbd564b4788745f51","GImage.js":"d93ca0496bdb3b9a6f15bdbd34db60ba","GameRunner.js":"33f18fd874a180504eaee08fce10d152","ZipReader.js":"d7aa55d618c22498e786a4b32b05cdd0"}|{}|.|.|.|.|.|.|.|.|.|.
