cogtask_name|cogtask_display_name|cogtask_type|cogtask_all_params_checksum|participant_id|cogtask_run_uuid|session_id|session_uuid|time_stamp|trial_uuid|cogtask_fps|cogtask_cps|mem_free_total|mem_free_perc|cogtask_trial_params|block_id|trialset_id|trial_num|block_num|block_trial_num|is_script|cogtask_script|trial_type|response_time|response_time_OLD|user_response|correct_response|script_checksum|cogtask_resource_checksum|cogtask_error|os|
Symbol Search|Symbol Search|script|4647FBDDFFA044CDEDB40DF45448BDF6|9999|245ce857-58a6-4f30-a5be-e608176fadd2|2|4d9e76d8-1d90-4e6e-a54a-2d83d8042d03|2020/09/14 11:16:15|9108a1b2-89d7-4e7f-84d2-46e49e2599ed|60.1640838650866|59.25250683682771|1952.0MB|35.67065774263982|{"type":"script","script":"symbolsearch","trialnum":"11","trialtype":"5","matchpairstop":"3","feedback":"0","lureperc":"100","leftcorrectperc":"50","startdelay":"1000","defval_survey_pack_id":"demo_games","leftcorrect":"0","lure":"1"}|1|1|1|1|0|true|symbolsearch|LURE|551|557|1|0|{"GameEngine.js":"61FA031FC10C8D55D04FF952C4D14DB9","Tools.js":"CA63E8AEADAD3FB000F03128ED0B5770","GList.js":"532D667D75F0085221F727470CA83389","KTime.js":"875C9B3225EF5E83B5E6E0BA905A448B","ErrorMan.js":"539CD2C30AA2B5609EE615A040CDBCA6","GImage.js":"8A31B421F899C53C1D76057F7AA35DC3","GColor.js":"3F152BEBB4545BCEF5D255A594DC52E2","symbolsearch.js":"54CAFE2C058A244D2FDCAC0443FD8293","Entity.js":"7C10DC4FFD31C005841E1DB7E3377467","KPosition.js":"A07B31F37C9CB1FA49A6B47BFF376522","KAlpha.js":"FDAC535470841697614A578B451F6D35","Sprite.js":"CD811FC36D62AC5077FDDF578C118BCF","GBox.js":"9C44756DBEB2733973B0BC3EC7784187","GButton.js":"00F4640559587F3C523855146ABE359C","GImage_Create.js":"ED2F46CFB944C53B9748D57BD8481FEA","symbolsearch_symbol.js":"ACE6991F318B4566099B0B201970B80F","symbolsearch.json":"72B06BD15FE02D21233621894E119A4C","GameRunner.js":"4EC5C05E34DD229518088607E762BDC4","KTrigger.js":"359598582677BA151569C2DA9B85F2C8","GMap.js":"6F664B3E3D5CEF53B028ECBDDDE836B6","GameParams.js":"51E7EECE2F2F5C7486F3C24306BD629E","Trial.js":"6171E3FA7940715F1573D01EBAF67D2F"}|{"symbols.png":"7961FD8CB80B8DC244C50F826F85496D","":"-1"}|.|.
Symbol Search|Symbol Search|script|4647FBDDFFA044CDEDB40DF45448BDF6|9999|245ce857-58a6-4f30-a5be-e608176fadd2|2|4d9e76d8-1d90-4e6e-a54a-2d83d8042d03|2020/09/14 11:16:16|8d384608-c92e-453e-9755-4c21369869a1|59.396299902629025|59.338521400778205|1949.0MB|35.61749889401053|{"type":"script","script":"symbolsearch","trialnum":"11","trialtype":"5","matchpairstop":"3","feedback":"0","lureperc":"100","leftcorrectperc":"50","startdelay":"1000","defval_survey_pack_id":"demo_games","leftcorrect":"1","lure":"1"}|1|1|2|1|0|true|symbolsearch|LURE|480|489|0|1|{"GameEngine.js":"61FA031FC10C8D55D04FF952C4D14DB9","Tools.js":"CA63E8AEADAD3FB000F03128ED0B5770","GList.js":"532D667D75F0085221F727470CA83389","KTime.js":"875C9B3225EF5E83B5E6E0BA905A448B","ErrorMan.js":"539CD2C30AA2B5609EE615A040CDBCA6","GImage.js":"8A31B421F899C53C1D76057F7AA35DC3","GColor.js":"3F152BEBB4545BCEF5D255A594DC52E2","symbolsearch.js":"54CAFE2C058A244D2FDCAC0443FD8293","Entity.js":"7C10DC4FFD31C005841E1DB7E3377467","KPosition.js":"A07B31F37C9CB1FA49A6B47BFF376522","KAlpha.js":"FDAC535470841697614A578B451F6D35","Sprite.js":"CD811FC36D62AC5077FDDF578C118BCF","GBox.js":"9C44756DBEB2733973B0BC3EC7784187","GButton.js":"00F4640559587F3C523855146ABE359C","GImage_Create.js":"ED2F46CFB944C53B9748D57BD8481FEA","symbolsearch_symbol.js":"ACE6991F318B4566099B0B201970B80F","symbolsearch.json":"72B06BD15FE02D21233621894E119A4C","GameRunner.js":"4EC5C05E34DD229518088607E762BDC4","KTrigger.js":"359598582677BA151569C2DA9B85F2C8","GMap.js":"6F664B3E3D5CEF53B028ECBDDDE836B6","GameParams.js":"51E7EECE2F2F5C7486F3C24306BD629E","Trial.js":"6171E3FA7940715F1573D01EBAF67D2F"}|{"symbols.png":"7961FD8CB80B8DC244C50F826F85496D","":"-1"}|.|.
Symbol Search|Symbol Search|script|4647FBDDFFA044CDEDB40DF45448BDF6|9999|245ce857-58a6-4f30-a5be-e608176fadd2|2|4d9e76d8-1d90-4e6e-a54a-2d83d8042d03|2020/09/14 11:16:17|ffb5e311-80eb-4666-afde-e0db4f5fefb6|59.541984732824424|59.541984732824424|1946.0MB|35.55777546273172|{"type":"script","script":"symbolsearch","trialnum":"11","trialtype":"5","matchpairstop":"3","feedback":"0","lureperc":"100","leftcorrectperc":"50","startdelay":"1000","defval_survey_pack_id":"demo_games","leftcorrect":"1","lure":"1"}|1|1|3|1|0|true|symbolsearch|LURE|105|116|1|1|{"GameEngine.js":"61FA031FC10C8D55D04FF952C4D14DB9","Tools.js":"CA63E8AEADAD3FB000F03128ED0B5770","GList.js":"532D667D75F0085221F727470CA83389","KTime.js":"875C9B3225EF5E83B5E6E0BA905A448B","ErrorMan.js":"539CD2C30AA2B5609EE615A040CDBCA6","GImage.js":"8A31B421F899C53C1D76057F7AA35DC3","GColor.js":"3F152BEBB4545BCEF5D255A594DC52E2","symbolsearch.js":"54CAFE2C058A244D2FDCAC0443FD8293","Entity.js":"7C10DC4FFD31C005841E1DB7E3377467","KPosition.js":"A07B31F37C9CB1FA49A6B47BFF376522","KAlpha.js":"FDAC535470841697614A578B451F6D35","Sprite.js":"CD811FC36D62AC5077FDDF578C118BCF","GBox.js":"9C44756DBEB2733973B0BC3EC7784187","GButton.js":"00F4640559587F3C523855146ABE359C","GImage_Create.js":"ED2F46CFB944C53B9748D57BD8481FEA","symbolsearch_symbol.js":"ACE6991F318B4566099B0B201970B80F","symbolsearch.json":"72B06BD15FE02D21233621894E119A4C","GameRunner.js":"4EC5C05E34DD229518088607E762BDC4","KTrigger.js":"359598582677BA151569C2DA9B85F2C8","GMap.js":"6F664B3E3D5CEF53B028ECBDDDE836B6","GameParams.js":"51E7EECE2F2F5C7486F3C24306BD629E","Trial.js":"6171E3FA7940715F1573D01EBAF67D2F"}|{"symbols.png":"7961FD8CB80B8DC244C50F826F85496D","":"-1"}|.|.
Symbol Search|Symbol Search|script|4647FBDDFFA044CDEDB40DF45448BDF6|9999|245ce857-58a6-4f30-a5be-e608176fadd2|2|4d9e76d8-1d90-4e6e-a54a-2d83d8042d03|2020/09/14 11:16:17|96e7ca86-c7f6-4228-9e38-5910daddffeb|60.06006006006006|60.06006006006006|1945.0MB|35.53843848557933|{"type":"script","script":"symbolsearch","trialnum":"11","trialtype":"5","matchpairstop":"3","feedback":"0","lureperc":"100","leftcorrectperc":"50","startdelay":"1000","defval_survey_pack_id":"demo_games","leftcorrect":"0","lure":"1"}|1|1|4|1|0|true|symbolsearch|LURE|117|134|1|0|{"GameEngine.js":"61FA031FC10C8D55D04FF952C4D14DB9","Tools.js":"CA63E8AEADAD3FB000F03128ED0B5770","GList.js":"532D667D75F0085221F727470CA83389","KTime.js":"875C9B3225EF5E83B5E6E0BA905A448B","ErrorMan.js":"539CD2C30AA2B5609EE615A040CDBCA6","GImage.js":"8A31B421F899C53C1D76057F7AA35DC3","GColor.js":"3F152BEBB4545BCEF5D255A594DC52E2","symbolsearch.js":"54CAFE2C058A244D2FDCAC0443FD8293","Entity.js":"7C10DC4FFD31C005841E1DB7E3377467","KPosition.js":"A07B31F37C9CB1FA49A6B47BFF376522","KAlpha.js":"FDAC535470841697614A578B451F6D35","Sprite.js":"CD811FC36D62AC5077FDDF578C118BCF","GBox.js":"9C44756DBEB2733973B0BC3EC7784187","GButton.js":"00F4640559587F3C523855146ABE359C","GImage_Create.js":"ED2F46CFB944C53B9748D57BD8481FEA","symbolsearch_symbol.js":"ACE6991F318B4566099B0B201970B80F","symbolsearch.json":"72B06BD15FE02D21233621894E119A4C","GameRunner.js":"4EC5C05E34DD229518088607E762BDC4","KTrigger.js":"359598582677BA151569C2DA9B85F2C8","GMap.js":"6F664B3E3D5CEF53B028ECBDDDE836B6","GameParams.js":"51E7EECE2F2F5C7486F3C24306BD629E","Trial.js":"6171E3FA7940715F1573D01EBAF67D2F"}|{"symbols.png":"7961FD8CB80B8DC244C50F826F85496D","":"-1"}|.|.
Symbol Search|Symbol Search|script|4647FBDDFFA044CDEDB40DF45448BDF6|9999|245ce857-58a6-4f30-a5be-e608176fadd2|2|4d9e76d8-1d90-4e6e-a54a-2d83d8042d03|2020/09/14 11:16:18|f3c822d9-6971-4d9b-9101-f9d318a3e4bf|60.00000000000001|59.91440798858773|1944.0MB|35.525095257802576|{"type":"script","script":"symbolsearch","trialnum":"11","trialtype":"5","matchpairstop":"3","feedback":"0","lureperc":"100","leftcorrectperc":"50","startdelay":"1000","defval_survey_pack_id":"demo_games","leftcorrect":"0","lure":"1"}|1|1|5|1|0|true|symbolsearch|LURE|159|166|0|0|{"GameEngine.js":"61FA031FC10C8D55D04FF952C4D14DB9","Tools.js":"CA63E8AEADAD3FB000F03128ED0B5770","GList.js":"532D667D75F0085221F727470CA83389","KTime.js":"875C9B3225EF5E83B5E6E0BA905A448B","ErrorMan.js":"539CD2C30AA2B5609EE615A040CDBCA6","GImage.js":"8A31B421F899C53C1D76057F7AA35DC3","GColor.js":"3F152BEBB4545BCEF5D255A594DC52E2","symbolsearch.js":"54CAFE2C058A244D2FDCAC0443FD8293","Entity.js":"7C10DC4FFD31C005841E1DB7E3377467","KPosition.js":"A07B31F37C9CB1FA49A6B47BFF376522","KAlpha.js":"FDAC535470841697614A578B451F6D35","Sprite.js":"CD811FC36D62AC5077FDDF578C118BCF","GBox.js":"9C44756DBEB2733973B0BC3EC7784187","GButton.js":"00F4640559587F3C523855146ABE359C","GImage_Create.js":"ED2F46CFB944C53B9748D57BD8481FEA","symbolsearch_symbol.js":"ACE6991F318B4566099B0B201970B80F","symbolsearch.json":"72B06BD15FE02D21233621894E119A4C","GameRunner.js":"4EC5C05E34DD229518088607E762BDC4","KTrigger.js":"359598582677BA151569C2DA9B85F2C8","GMap.js":"6F664B3E3D5CEF53B028ECBDDDE836B6","GameParams.js":"51E7EECE2F2F5C7486F3C24306BD629E","Trial.js":"6171E3FA7940715F1573D01EBAF67D2F"}|{"symbols.png":"7961FD8CB80B8DC244C50F826F85496D","":"-1"}|.|.
Symbol Search|Symbol Search|script|4647FBDDFFA044CDEDB40DF45448BDF6|9999|245ce857-58a6-4f30-a5be-e608176fadd2|2|4d9e76d8-1d90-4e6e-a54a-2d83d8042d03|2020/09/14 11:16:19|d9ea750c-c363-4a99-88a4-9f49a08d018c|58.343057176196034|59.44055944055944|1956.0MB|35.73309263196951|{"type":"script","script":"symbolsearch","trialnum":"11","trialtype":"5","matchpairstop":"3","feedback":"0","lureperc":"100","leftcorrectperc":"50","startdelay":"1000","defval_survey_pack_id":"demo_games","leftcorrect":"1","lure":"1"}|1|1|6|1|0|true|symbolsearch|LURE|304|323|1|1|{"GameEngine.js":"61FA031FC10C8D55D04FF952C4D14DB9","Tools.js":"CA63E8AEADAD3FB000F03128ED0B5770","GList.js":"532D667D75F0085221F727470CA83389","KTime.js":"875C9B3225EF5E83B5E6E0BA905A448B","ErrorMan.js":"539CD2C30AA2B5609EE615A040CDBCA6","GImage.js":"8A31B421F899C53C1D76057F7AA35DC3","GColor.js":"3F152BEBB4545BCEF5D255A594DC52E2","symbolsearch.js":"54CAFE2C058A244D2FDCAC0443FD8293","Entity.js":"7C10DC4FFD31C005841E1DB7E3377467","KPosition.js":"A07B31F37C9CB1FA49A6B47BFF376522","KAlpha.js":"FDAC535470841697614A578B451F6D35","Sprite.js":"CD811FC36D62AC5077FDDF578C118BCF","GBox.js":"9C44756DBEB2733973B0BC3EC7784187","GButton.js":"00F4640559587F3C523855146ABE359C","GImage_Create.js":"ED2F46CFB944C53B9748D57BD8481FEA","symbolsearch_symbol.js":"ACE6991F318B4566099B0B201970B80F","symbolsearch.json":"72B06BD15FE02D21233621894E119A4C","GameRunner.js":"4EC5C05E34DD229518088607E762BDC4","KTrigger.js":"359598582677BA151569C2DA9B85F2C8","GMap.js":"6F664B3E3D5CEF53B028ECBDDDE836B6","GameParams.js":"51E7EECE2F2F5C7486F3C24306BD629E","Trial.js":"6171E3FA7940715F1573D01EBAF67D2F"}|{"symbols.png":"7961FD8CB80B8DC244C50F826F85496D","":"-1"}|.|.
Symbol Search|Symbol Search|script|4647FBDDFFA044CDEDB40DF45448BDF6|9999|245ce857-58a6-4f30-a5be-e608176fadd2|2|4d9e76d8-1d90-4e6e-a54a-2d83d8042d03|2020/09/14 11:16:20|d7c4f0ae-d6f4-4130-ba8b-dda39f0a534d|60.02928257686676|60.02928257686676|1953.0MB|35.68664107430822|{"type":"script","script":"symbolsearch","trialnum":"11","trialtype":"5","matchpairstop":"3","feedback":"0","lureperc":"100","leftcorrectperc":"50","startdelay":"1000","defval_survey_pack_id":"demo_games","leftcorrect":"1","lure":"1"}|1|1|7|1|0|true|symbolsearch|LURE|142|149|1|1|{"GameEngine.js":"61FA031FC10C8D55D04FF952C4D14DB9","Tools.js":"CA63E8AEADAD3FB000F03128ED0B5770","GList.js":"532D667D75F0085221F727470CA83389","KTime.js":"875C9B3225EF5E83B5E6E0BA905A448B","ErrorMan.js":"539CD2C30AA2B5609EE615A040CDBCA6","GImage.js":"8A31B421F899C53C1D76057F7AA35DC3","GColor.js":"3F152BEBB4545BCEF5D255A594DC52E2","symbolsearch.js":"54CAFE2C058A244D2FDCAC0443FD8293","Entity.js":"7C10DC4FFD31C005841E1DB7E3377467","KPosition.js":"A07B31F37C9CB1FA49A6B47BFF376522","KAlpha.js":"FDAC535470841697614A578B451F6D35","Sprite.js":"CD811FC36D62AC5077FDDF578C118BCF","GBox.js":"9C44756DBEB2733973B0BC3EC7784187","GButton.js":"00F4640559587F3C523855146ABE359C","GImage_Create.js":"ED2F46CFB944C53B9748D57BD8481FEA","symbolsearch_symbol.js":"ACE6991F318B4566099B0B201970B80F","symbolsearch.json":"72B06BD15FE02D21233621894E119A4C","GameRunner.js":"4EC5C05E34DD229518088607E762BDC4","KTrigger.js":"359598582677BA151569C2DA9B85F2C8","GMap.js":"6F664B3E3D5CEF53B028ECBDDDE836B6","GameParams.js":"51E7EECE2F2F5C7486F3C24306BD629E","Trial.js":"6171E3FA7940715F1573D01EBAF67D2F"}|{"symbols.png":"7961FD8CB80B8DC244C50F826F85496D","":"-1"}|.|.
Symbol Search|Symbol Search|script|4647FBDDFFA044CDEDB40DF45448BDF6|9999|245ce857-58a6-4f30-a5be-e608176fadd2|2|4d9e76d8-1d90-4e6e-a54a-2d83d8042d03|2020/09/14 11:16:20|c5b4c1ff-e28e-4258-a390-ee5c48d29578|59.8159509202454|59.8159509202454|1951.0MB|35.64240149558317|{"type":"script","script":"symbolsearch","trialnum":"11","trialtype":"5","matchpairstop":"3","feedback":"0","lureperc":"100","leftcorrectperc":"50","startdelay":"1000","defval_survey_pack_id":"demo_games","leftcorrect":"1","lure":"1"}|1|1|8|1|0|true|symbolsearch|LURE|102|118|0|1|{"GameEngine.js":"61FA031FC10C8D55D04FF952C4D14DB9","Tools.js":"CA63E8AEADAD3FB000F03128ED0B5770","GList.js":"532D667D75F0085221F727470CA83389","KTime.js":"875C9B3225EF5E83B5E6E0BA905A448B","ErrorMan.js":"539CD2C30AA2B5609EE615A040CDBCA6","GImage.js":"8A31B421F899C53C1D76057F7AA35DC3","GColor.js":"3F152BEBB4545BCEF5D255A594DC52E2","symbolsearch.js":"54CAFE2C058A244D2FDCAC0443FD8293","Entity.js":"7C10DC4FFD31C005841E1DB7E3377467","KPosition.js":"A07B31F37C9CB1FA49A6B47BFF376522","KAlpha.js":"FDAC535470841697614A578B451F6D35","Sprite.js":"CD811FC36D62AC5077FDDF578C118BCF","GBox.js":"9C44756DBEB2733973B0BC3EC7784187","GButton.js":"00F4640559587F3C523855146ABE359C","GImage_Create.js":"ED2F46CFB944C53B9748D57BD8481FEA","symbolsearch_symbol.js":"ACE6991F318B4566099B0B201970B80F","symbolsearch.json":"72B06BD15FE02D21233621894E119A4C","GameRunner.js":"4EC5C05E34DD229518088607E762BDC4","KTrigger.js":"359598582677BA151569C2DA9B85F2C8","GMap.js":"6F664B3E3D5CEF53B028ECBDDDE836B6","GameParams.js":"51E7EECE2F2F5C7486F3C24306BD629E","Trial.js":"6171E3FA7940715F1573D01EBAF67D2F"}|{"symbols.png":"7961FD8CB80B8DC244C50F826F85496D","":"-1"}|.|.
Symbol Search|Symbol Search|script|4647FBDDFFA044CDEDB40DF45448BDF6|9999|245ce857-58a6-4f30-a5be-e608176fadd2|2|4d9e76d8-1d90-4e6e-a54a-2d83d8042d03|2020/09/14 11:16:21|e7069bbd-a12c-4625-b729-db1c0a814c49|59.541984732824424|59.541984732824424|1947.0MB|35.58267806430437|{"type":"script","script":"symbolsearch","trialnum":"11","trialtype":"5","matchpairstop":"3","feedback":"0","lureperc":"100","leftcorrectperc":"50","startdelay":"1000","defval_survey_pack_id":"demo_games","leftcorrect":"0","lure":"1"}|1|1|9|1|0|true|symbolsearch|LURE|109|119|1|0|{"GameEngine.js":"61FA031FC10C8D55D04FF952C4D14DB9","Tools.js":"CA63E8AEADAD3FB000F03128ED0B5770","GList.js":"532D667D75F0085221F727470CA83389","KTime.js":"875C9B3225EF5E83B5E6E0BA905A448B","ErrorMan.js":"539CD2C30AA2B5609EE615A040CDBCA6","GImage.js":"8A31B421F899C53C1D76057F7AA35DC3","GColor.js":"3F152BEBB4545BCEF5D255A594DC52E2","symbolsearch.js":"54CAFE2C058A244D2FDCAC0443FD8293","Entity.js":"7C10DC4FFD31C005841E1DB7E3377467","KPosition.js":"A07B31F37C9CB1FA49A6B47BFF376522","KAlpha.js":"FDAC535470841697614A578B451F6D35","Sprite.js":"CD811FC36D62AC5077FDDF578C118BCF","GBox.js":"9C44756DBEB2733973B0BC3EC7784187","GButton.js":"00F4640559587F3C523855146ABE359C","GImage_Create.js":"ED2F46CFB944C53B9748D57BD8481FEA","symbolsearch_symbol.js":"ACE6991F318B4566099B0B201970B80F","symbolsearch.json":"72B06BD15FE02D21233621894E119A4C","GameRunner.js":"4EC5C05E34DD229518088607E762BDC4","KTrigger.js":"359598582677BA151569C2DA9B85F2C8","GMap.js":"6F664B3E3D5CEF53B028ECBDDDE836B6","GameParams.js":"51E7EECE2F2F5C7486F3C24306BD629E","Trial.js":"6171E3FA7940715F1573D01EBAF67D2F"}|{"symbols.png":"7961FD8CB80B8DC244C50F826F85496D","":"-1"}|.|.
Symbol Search|Symbol Search|script|4647FBDDFFA044CDEDB40DF45448BDF6|9999|245ce857-58a6-4f30-a5be-e608176fadd2|2|4d9e76d8-1d90-4e6e-a54a-2d83d8042d03|2020/09/14 11:16:22|1826d839-4b29-416e-b9e4-9569734b6151|59.74395448079659|59.74395448079659|1946.0MB|35.558346296005595|{"type":"script","script":"symbolsearch","trialnum":"11","trialtype":"5","matchpairstop":"3","feedback":"0","lureperc":"100","leftcorrectperc":"50","startdelay":"1000","defval_survey_pack_id":"demo_games","leftcorrect":"1","lure":"1"}|1|1|10|1|0|true|symbolsearch|LURE|156|167|1|1|{"GameEngine.js":"61FA031FC10C8D55D04FF952C4D14DB9","Tools.js":"CA63E8AEADAD3FB000F03128ED0B5770","GList.js":"532D667D75F0085221F727470CA83389","KTime.js":"875C9B3225EF5E83B5E6E0BA905A448B","ErrorMan.js":"539CD2C30AA2B5609EE615A040CDBCA6","GImage.js":"8A31B421F899C53C1D76057F7AA35DC3","GColor.js":"3F152BEBB4545BCEF5D255A594DC52E2","symbolsearch.js":"54CAFE2C058A244D2FDCAC0443FD8293","Entity.js":"7C10DC4FFD31C005841E1DB7E3377467","KPosition.js":"A07B31F37C9CB1FA49A6B47BFF376522","KAlpha.js":"FDAC535470841697614A578B451F6D35","Sprite.js":"CD811FC36D62AC5077FDDF578C118BCF","GBox.js":"9C44756DBEB2733973B0BC3EC7784187","GButton.js":"00F4640559587F3C523855146ABE359C","GImage_Create.js":"ED2F46CFB944C53B9748D57BD8481FEA","symbolsearch_symbol.js":"ACE6991F318B4566099B0B201970B80F","symbolsearch.json":"72B06BD15FE02D21233621894E119A4C","GameRunner.js":"4EC5C05E34DD229518088607E762BDC4","KTrigger.js":"359598582677BA151569C2DA9B85F2C8","GMap.js":"6F664B3E3D5CEF53B028ECBDDDE836B6","GameParams.js":"51E7EECE2F2F5C7486F3C24306BD629E","Trial.js":"6171E3FA7940715F1573D01EBAF67D2F"}|{"symbols.png":"7961FD8CB80B8DC244C50F826F85496D","":"-1"}|.|.
Symbol Search|Symbol Search|script|4647FBDDFFA044CDEDB40DF45448BDF6|9999|245ce857-58a6-4f30-a5be-e608176fadd2|2|4d9e76d8-1d90-4e6e-a54a-2d83d8042d03|2020/09/14 11:16:22|7933c53b-3055-4923-9742-fac5e9171b21|60.0|60.0|1943.0MB|35.50632911392405|{"type":"script","script":"symbolsearch","trialnum":"11","trialtype":"5","matchpairstop":"3","feedback":"0","lureperc":"100","leftcorrectperc":"50","startdelay":"1000","defval_survey_pack_id":"demo_games","leftcorrect":"0","lure":"1"}|1|1|11|1|0|true|symbolsearch|LURE|59|67|0|0|{"GameEngine.js":"61FA031FC10C8D55D04FF952C4D14DB9","Tools.js":"CA63E8AEADAD3FB000F03128ED0B5770","GList.js":"532D667D75F0085221F727470CA83389","KTime.js":"875C9B3225EF5E83B5E6E0BA905A448B","ErrorMan.js":"539CD2C30AA2B5609EE615A040CDBCA6","GImage.js":"8A31B421F899C53C1D76057F7AA35DC3","GColor.js":"3F152BEBB4545BCEF5D255A594DC52E2","symbolsearch.js":"54CAFE2C058A244D2FDCAC0443FD8293","Entity.js":"7C10DC4FFD31C005841E1DB7E3377467","KPosition.js":"A07B31F37C9CB1FA49A6B47BFF376522","KAlpha.js":"FDAC535470841697614A578B451F6D35","Sprite.js":"CD811FC36D62AC5077FDDF578C118BCF","GBox.js":"9C44756DBEB2733973B0BC3EC7784187","GButton.js":"00F4640559587F3C523855146ABE359C","GImage_Create.js":"ED2F46CFB944C53B9748D57BD8481FEA","symbolsearch_symbol.js":"ACE6991F318B4566099B0B201970B80F","symbolsearch.json":"72B06BD15FE02D21233621894E119A4C","GameRunner.js":"4EC5C05E34DD229518088607E762BDC4","KTrigger.js":"359598582677BA151569C2DA9B85F2C8","GMap.js":"6F664B3E3D5CEF53B028ECBDDDE836B6","GameParams.js":"51E7EECE2F2F5C7486F3C24306BD629E","Trial.js":"6171E3FA7940715F1573D01EBAF67D2F"}|{"symbols.png":"7961FD8CB80B8DC244C50F826F85496D","":"-1"}|.|.
Symbol Search|Symbol Search|script|3080D1BA430EDD8E29E4CA941C1AAD6E|9999|acb94206-7208-46df-902d-45adaaa73221|3|f9960359-792a-4035-9591-7431a3e46830|2020/09/14 11:16:57|ec7a59cc-a70f-4c6e-956c-9b1901033306|60.34482758620689|59.11330049261083|1958.0MB|35.77540564839525|{"type":"script","script":"symbolsearch","trialnum":"4","trialtype":"5","matchpairstop":"3","feedback":"0","lureperc":"100","leftcorrectperc":"50","startdelay":"1000","defval_survey_pack_id":"demo_survey","leftcorrect":"1","lure":"1"}|1|1|1|1|0|true|symbolsearch|LURE|263|270|1|1|{"GameEngine.js":"61FA031FC10C8D55D04FF952C4D14DB9","Tools.js":"CA63E8AEADAD3FB000F03128ED0B5770","GList.js":"532D667D75F0085221F727470CA83389","KTime.js":"875C9B3225EF5E83B5E6E0BA905A448B","ErrorMan.js":"539CD2C30AA2B5609EE615A040CDBCA6","GImage.js":"8A31B421F899C53C1D76057F7AA35DC3","GColor.js":"3F152BEBB4545BCEF5D255A594DC52E2","symbolsearch.js":"54CAFE2C058A244D2FDCAC0443FD8293","Entity.js":"7C10DC4FFD31C005841E1DB7E3377467","KPosition.js":"A07B31F37C9CB1FA49A6B47BFF376522","KAlpha.js":"FDAC535470841697614A578B451F6D35","Sprite.js":"CD811FC36D62AC5077FDDF578C118BCF","GBox.js":"9C44756DBEB2733973B0BC3EC7784187","GButton.js":"00F4640559587F3C523855146ABE359C","GImage_Create.js":"ED2F46CFB944C53B9748D57BD8481FEA","symbolsearch_symbol.js":"ACE6991F318B4566099B0B201970B80F","symbolsearch.json":"72B06BD15FE02D21233621894E119A4C","GameRunner.js":"4EC5C05E34DD229518088607E762BDC4","KTrigger.js":"359598582677BA151569C2DA9B85F2C8","GMap.js":"6F664B3E3D5CEF53B028ECBDDDE836B6","GameParams.js":"51E7EECE2F2F5C7486F3C24306BD629E","Trial.js":"6171E3FA7940715F1573D01EBAF67D2F"}|{"symbols.png":"7961FD8CB80B8DC244C50F826F85496D","":"-1"}|.|.
Symbol Search|Symbol Search|script|3080D1BA430EDD8E29E4CA941C1AAD6E|9999|acb94206-7208-46df-902d-45adaaa73221|3|f9960359-792a-4035-9591-7431a3e46830|2020/09/14 11:16:58|2788b812-5aad-4b97-aa03-7412eed16273|60.563380281690144|59.15492957746479|1958.0MB|35.770838982204275|{"type":"script","script":"symbolsearch","trialnum":"4","trialtype":"5","matchpairstop":"3","feedback":"0","lureperc":"100","leftcorrectperc":"50","startdelay":"1000","defval_survey_pack_id":"demo_survey","leftcorrect":"0","lure":"1"}|1|1|2|1|0|true|symbolsearch|LURE|149|167|0|0|{"GameEngine.js":"61FA031FC10C8D55D04FF952C4D14DB9","Tools.js":"CA63E8AEADAD3FB000F03128ED0B5770","GList.js":"532D667D75F0085221F727470CA83389","KTime.js":"875C9B3225EF5E83B5E6E0BA905A448B","ErrorMan.js":"539CD2C30AA2B5609EE615A040CDBCA6","GImage.js":"8A31B421F899C53C1D76057F7AA35DC3","GColor.js":"3F152BEBB4545BCEF5D255A594DC52E2","symbolsearch.js":"54CAFE2C058A244D2FDCAC0443FD8293","Entity.js":"7C10DC4FFD31C005841E1DB7E3377467","KPosition.js":"A07B31F37C9CB1FA49A6B47BFF376522","KAlpha.js":"FDAC535470841697614A578B451F6D35","Sprite.js":"CD811FC36D62AC5077FDDF578C118BCF","GBox.js":"9C44756DBEB2733973B0BC3EC7784187","GButton.js":"00F4640559587F3C523855146ABE359C","GImage_Create.js":"ED2F46CFB944C53B9748D57BD8481FEA","symbolsearch_symbol.js":"ACE6991F318B4566099B0B201970B80F","symbolsearch.json":"72B06BD15FE02D21233621894E119A4C","GameRunner.js":"4EC5C05E34DD229518088607E762BDC4","KTrigger.js":"359598582677BA151569C2DA9B85F2C8","GMap.js":"6F664B3E3D5CEF53B028ECBDDDE836B6","GameParams.js":"51E7EECE2F2F5C7486F3C24306BD629E","Trial.js":"6171E3FA7940715F1573D01EBAF67D2F"}|{"symbols.png":"7961FD8CB80B8DC244C50F826F85496D","":"-1"}|.|.
Symbol Search|Symbol Search|script|3080D1BA430EDD8E29E4CA941C1AAD6E|9999|acb94206-7208-46df-902d-45adaaa73221|3|f9960359-792a-4035-9591-7431a3e46830|2020/09/14 11:16:59|5e7e081b-be5b-4dd7-9f12-ec68141990fc|59.724349157733535|59.724349157733535|1955.0MB|35.717537425256516|{"type":"script","script":"symbolsearch","trialnum":"4","trialtype":"5","matchpairstop":"3","feedback":"0","lureperc":"100","leftcorrectperc":"50","startdelay":"1000","defval_survey_pack_id":"demo_survey","leftcorrect":"1","lure":"1"}|1|1|3|1|0|true|symbolsearch|LURE|106|115|1|1|{"GameEngine.js":"61FA031FC10C8D55D04FF952C4D14DB9","Tools.js":"CA63E8AEADAD3FB000F03128ED0B5770","GList.js":"532D667D75F0085221F727470CA83389","KTime.js":"875C9B3225EF5E83B5E6E0BA905A448B","ErrorMan.js":"539CD2C30AA2B5609EE615A040CDBCA6","GImage.js":"8A31B421F899C53C1D76057F7AA35DC3","GColor.js":"3F152BEBB4545BCEF5D255A594DC52E2","symbolsearch.js":"54CAFE2C058A244D2FDCAC0443FD8293","Entity.js":"7C10DC4FFD31C005841E1DB7E3377467","KPosition.js":"A07B31F37C9CB1FA49A6B47BFF376522","KAlpha.js":"FDAC535470841697614A578B451F6D35","Sprite.js":"CD811FC36D62AC5077FDDF578C118BCF","GBox.js":"9C44756DBEB2733973B0BC3EC7784187","GButton.js":"00F4640559587F3C523855146ABE359C","GImage_Create.js":"ED2F46CFB944C53B9748D57BD8481FEA","symbolsearch_symbol.js":"ACE6991F318B4566099B0B201970B80F","symbolsearch.json":"72B06BD15FE02D21233621894E119A4C","GameRunner.js":"4EC5C05E34DD229518088607E762BDC4","KTrigger.js":"359598582677BA151569C2DA9B85F2C8","GMap.js":"6F664B3E3D5CEF53B028ECBDDDE836B6","GameParams.js":"51E7EECE2F2F5C7486F3C24306BD629E","Trial.js":"6171E3FA7940715F1573D01EBAF67D2F"}|{"symbols.png":"7961FD8CB80B8DC244C50F826F85496D","":"-1"}|.|.
Symbol Search|Symbol Search|script|3080D1BA430EDD8E29E4CA941C1AAD6E|9999|acb94206-7208-46df-902d-45adaaa73221|3|f9960359-792a-4035-9591-7431a3e46830|2020/09/14 11:17:00|d6239c2c-786a-4e03-856b-f4fefdc1e370|59.3939393939394|59.3939393939394|1953.0MB|35.679862429181|{"type":"script","script":"symbolsearch","trialnum":"4","trialtype":"5","matchpairstop":"3","feedback":"0","lureperc":"100","leftcorrectperc":"50","startdelay":"1000","defval_survey_pack_id":"demo_survey","leftcorrect":"0","lure":"1"}|1|1|4|1|0|true|symbolsearch|LURE|282|290|0|0|{"GameEngine.js":"61FA031FC10C8D55D04FF952C4D14DB9","Tools.js":"CA63E8AEADAD3FB000F03128ED0B5770","GList.js":"532D667D75F0085221F727470CA83389","KTime.js":"875C9B3225EF5E83B5E6E0BA905A448B","ErrorMan.js":"539CD2C30AA2B5609EE615A040CDBCA6","GImage.js":"8A31B421F899C53C1D76057F7AA35DC3","GColor.js":"3F152BEBB4545BCEF5D255A594DC52E2","symbolsearch.js":"54CAFE2C058A244D2FDCAC0443FD8293","Entity.js":"7C10DC4FFD31C005841E1DB7E3377467","KPosition.js":"A07B31F37C9CB1FA49A6B47BFF376522","KAlpha.js":"FDAC535470841697614A578B451F6D35","Sprite.js":"CD811FC36D62AC5077FDDF578C118BCF","GBox.js":"9C44756DBEB2733973B0BC3EC7784187","GButton.js":"00F4640559587F3C523855146ABE359C","GImage_Create.js":"ED2F46CFB944C53B9748D57BD8481FEA","symbolsearch_symbol.js":"ACE6991F318B4566099B0B201970B80F","symbolsearch.json":"72B06BD15FE02D21233621894E119A4C","GameRunner.js":"4EC5C05E34DD229518088607E762BDC4","KTrigger.js":"359598582677BA151569C2DA9B85F2C8","GMap.js":"6F664B3E3D5CEF53B028ECBDDDE836B6","GameParams.js":"51E7EECE2F2F5C7486F3C24306BD629E","Trial.js":"6171E3FA7940715F1573D01EBAF67D2F"}|{"symbols.png":"7961FD8CB80B8DC244C50F826F85496D","":"-1"}|.|.
Symbol Search|Symbol Search|script|3080D1BA430EDD8E29E4CA941C1AAD6E|9999|095ae7ba-97cc-4cec-afa2-8f7d8e9e0b6c|8|e78467d1-c0ca-4703-8c38-852ab09bc0cb|2020/09/14 11:23:56|5cea616b-7325-47fb-bcdf-cd503556d39b|61.76961602671119|59.26544240400668|6916.0MB|60.83183061343609|{"type":"script","script":"symbolsearch","trialnum":"4","trialtype":"5","matchpairstop":"3","feedback":"0","lureperc":"100","leftcorrectperc":"50","startdelay":"1000","defval_survey_pack_id":"demo_survey","leftcorrect":"1","lure":"1"}|1|1|1|1|0|true|symbolsearch|LURE|637|656|1|1|{"GameEngine.js":"61FA031FC10C8D55D04FF952C4D14DB9","Tools.js":"CA63E8AEADAD3FB000F03128ED0B5770","GList.js":"532D667D75F0085221F727470CA83389","KTime.js":"875C9B3225EF5E83B5E6E0BA905A448B","ErrorMan.js":"539CD2C30AA2B5609EE615A040CDBCA6","GImage.js":"8A31B421F899C53C1D76057F7AA35DC3","GColor.js":"3F152BEBB4545BCEF5D255A594DC52E2","symbolsearch.js":"54CAFE2C058A244D2FDCAC0443FD8293","Entity.js":"7C10DC4FFD31C005841E1DB7E3377467","KPosition.js":"A07B31F37C9CB1FA49A6B47BFF376522","KAlpha.js":"FDAC535470841697614A578B451F6D35","Sprite.js":"CD811FC36D62AC5077FDDF578C118BCF","GBox.js":"9C44756DBEB2733973B0BC3EC7784187","GButton.js":"00F4640559587F3C523855146ABE359C","GImage_Create.js":"ED2F46CFB944C53B9748D57BD8481FEA","symbolsearch_symbol.js":"ACE6991F318B4566099B0B201970B80F","symbolsearch.json":"72B06BD15FE02D21233621894E119A4C","GameRunner.js":"4EC5C05E34DD229518088607E762BDC4","KTrigger.js":"359598582677BA151569C2DA9B85F2C8","GMap.js":"6F664B3E3D5CEF53B028ECBDDDE836B6","GameParams.js":"51E7EECE2F2F5C7486F3C24306BD629E","Trial.js":"6171E3FA7940715F1573D01EBAF67D2F"}|{"symbols.png":"7961FD8CB80B8DC244C50F826F85496D","":"-1"}|.|.
Symbol Search|Symbol Search|script|3080D1BA430EDD8E29E4CA941C1AAD6E|9999|095ae7ba-97cc-4cec-afa2-8f7d8e9e0b6c|8|e78467d1-c0ca-4703-8c38-852ab09bc0cb|2020/09/14 11:23:57|3c67d78c-47d1-4d09-941f-a438c7feb3f1|59.63791267305645|59.63791267305645|6925.0MB|60.90765083397089|{"type":"script","script":"symbolsearch","trialnum":"4","trialtype":"5","matchpairstop":"3","feedback":"0","lureperc":"100","leftcorrectperc":"50","startdelay":"1000","defval_survey_pack_id":"demo_survey","leftcorrect":"0","lure":"1"}|1|1|2|1|0|true|symbolsearch|LURE|382|401|1|0|{"GameEngine.js":"61FA031FC10C8D55D04FF952C4D14DB9","Tools.js":"CA63E8AEADAD3FB000F03128ED0B5770","GList.js":"532D667D75F0085221F727470CA83389","KTime.js":"875C9B3225EF5E83B5E6E0BA905A448B","ErrorMan.js":"539CD2C30AA2B5609EE615A040CDBCA6","GImage.js":"8A31B421F899C53C1D76057F7AA35DC3","GColor.js":"3F152BEBB4545BCEF5D255A594DC52E2","symbolsearch.js":"54CAFE2C058A244D2FDCAC0443FD8293","Entity.js":"7C10DC4FFD31C005841E1DB7E3377467","KPosition.js":"A07B31F37C9CB1FA49A6B47BFF376522","KAlpha.js":"FDAC535470841697614A578B451F6D35","Sprite.js":"CD811FC36D62AC5077FDDF578C118BCF","GBox.js":"9C44756DBEB2733973B0BC3EC7784187","GButton.js":"00F4640559587F3C523855146ABE359C","GImage_Create.js":"ED2F46CFB944C53B9748D57BD8481FEA","symbolsearch_symbol.js":"ACE6991F318B4566099B0B201970B80F","symbolsearch.json":"72B06BD15FE02D21233621894E119A4C","GameRunner.js":"4EC5C05E34DD229518088607E762BDC4","KTrigger.js":"359598582677BA151569C2DA9B85F2C8","GMap.js":"6F664B3E3D5CEF53B028ECBDDDE836B6","GameParams.js":"51E7EECE2F2F5C7486F3C24306BD629E","Trial.js":"6171E3FA7940715F1573D01EBAF67D2F"}|{"symbols.png":"7961FD8CB80B8DC244C50F826F85496D","":"-1"}|.|.
Symbol Search|Symbol Search|script|3080D1BA430EDD8E29E4CA941C1AAD6E|9999|095ae7ba-97cc-4cec-afa2-8f7d8e9e0b6c|8|e78467d1-c0ca-4703-8c38-852ab09bc0cb|2020/09/14 11:23:57|508374ef-7aa1-4887-86a1-4e004644e80b|59.800664451827245|59.800664451827245|6905.0MB|60.72931700307094|{"type":"script","script":"symbolsearch","trialnum":"4","trialtype":"5","matchpairstop":"3","feedback":"0","lureperc":"100","leftcorrectperc":"50","startdelay":"1000","defval_survey_pack_id":"demo_survey","leftcorrect":"1","lure":"1"}|1|1|3|1|0|true|symbolsearch|LURE|47|66|1|1|{"GameEngine.js":"61FA031FC10C8D55D04FF952C4D14DB9","Tools.js":"CA63E8AEADAD3FB000F03128ED0B5770","GList.js":"532D667D75F0085221F727470CA83389","KTime.js":"875C9B3225EF5E83B5E6E0BA905A448B","ErrorMan.js":"539CD2C30AA2B5609EE615A040CDBCA6","GImage.js":"8A31B421F899C53C1D76057F7AA35DC3","GColor.js":"3F152BEBB4545BCEF5D255A594DC52E2","symbolsearch.js":"54CAFE2C058A244D2FDCAC0443FD8293","Entity.js":"7C10DC4FFD31C005841E1DB7E3377467","KPosition.js":"A07B31F37C9CB1FA49A6B47BFF376522","KAlpha.js":"FDAC535470841697614A578B451F6D35","Sprite.js":"CD811FC36D62AC5077FDDF578C118BCF","GBox.js":"9C44756DBEB2733973B0BC3EC7784187","GButton.js":"00F4640559587F3C523855146ABE359C","GImage_Create.js":"ED2F46CFB944C53B9748D57BD8481FEA","symbolsearch_symbol.js":"ACE6991F318B4566099B0B201970B80F","symbolsearch.json":"72B06BD15FE02D21233621894E119A4C","GameRunner.js":"4EC5C05E34DD229518088607E762BDC4","KTrigger.js":"359598582677BA151569C2DA9B85F2C8","GMap.js":"6F664B3E3D5CEF53B028ECBDDDE836B6","GameParams.js":"51E7EECE2F2F5C7486F3C24306BD629E","Trial.js":"6171E3FA7940715F1573D01EBAF67D2F"}|{"symbols.png":"7961FD8CB80B8DC244C50F826F85496D","":"-1"}|.|.
Symbol Search|Symbol Search|script|3080D1BA430EDD8E29E4CA941C1AAD6E|9999|095ae7ba-97cc-4cec-afa2-8f7d8e9e0b6c|8|e78467d1-c0ca-4703-8c38-852ab09bc0cb|2020/09/14 11:23:58|b602ce55-6ef7-48ca-aecb-25c759dcd7ed|59.8159509202454|59.8159509202454|6906.0MB|60.739554622336634|{"type":"script","script":"symbolsearch","trialnum":"4","trialtype":"5","matchpairstop":"3","feedback":"0","lureperc":"100","leftcorrectperc":"50","startdelay":"1000","defval_survey_pack_id":"demo_survey","leftcorrect":"0","lure":"1"}|1|1|4|1|0|true|symbolsearch|LURE|102|111|1|0|{"GameEngine.js":"61FA031FC10C8D55D04FF952C4D14DB9","Tools.js":"CA63E8AEADAD3FB000F03128ED0B5770","GList.js":"532D667D75F0085221F727470CA83389","KTime.js":"875C9B3225EF5E83B5E6E0BA905A448B","ErrorMan.js":"539CD2C30AA2B5609EE615A040CDBCA6","GImage.js":"8A31B421F899C53C1D76057F7AA35DC3","GColor.js":"3F152BEBB4545BCEF5D255A594DC52E2","symbolsearch.js":"54CAFE2C058A244D2FDCAC0443FD8293","Entity.js":"7C10DC4FFD31C005841E1DB7E3377467","KPosition.js":"A07B31F37C9CB1FA49A6B47BFF376522","KAlpha.js":"FDAC535470841697614A578B451F6D35","Sprite.js":"CD811FC36D62AC5077FDDF578C118BCF","GBox.js":"9C44756DBEB2733973B0BC3EC7784187","GButton.js":"00F4640559587F3C523855146ABE359C","GImage_Create.js":"ED2F46CFB944C53B9748D57BD8481FEA","symbolsearch_symbol.js":"ACE6991F318B4566099B0B201970B80F","symbolsearch.json":"72B06BD15FE02D21233621894E119A4C","GameRunner.js":"4EC5C05E34DD229518088607E762BDC4","KTrigger.js":"359598582677BA151569C2DA9B85F2C8","GMap.js":"6F664B3E3D5CEF53B028ECBDDDE836B6","GameParams.js":"51E7EECE2F2F5C7486F3C24306BD629E","Trial.js":"6171E3FA7940715F1573D01EBAF67D2F"}|{"symbols.png":"7961FD8CB80B8DC244C50F826F85496D","":"-1"}|.|.
Symbol Search|Symbol Search|script|3080D1BA430EDD8E29E4CA941C1AAD6E|9999|62c05e98-e847-4175-9b7a-59c1cb21fba9|12|af0dd3e0-1435-4e35-b4dd-46a8fd9b5428|2020/09/16 11:28:27|da683a5b-4b07-4db7-8bee-858d3bf6b79f|59.96548748921484|58.671268334771355|5397.0MB|47.46871428213161|{"type":"script","script":"symbolsearch","trialnum":"4","trialtype":"5","matchpairstop":"3","feedback":"0","lureperc":"100","leftcorrectperc":"50","startdelay":"1000","defval_survey_pack_id":"demo_survey","leftcorrect":"1","lure":"1"}|1|1|1|1|0|true|symbolsearch|LURE|1755|1768|0|1|{"GameEngine.js":"61FA031FC10C8D55D04FF952C4D14DB9","Tools.js":"CA63E8AEADAD3FB000F03128ED0B5770","GList.js":"532D667D75F0085221F727470CA83389","KTime.js":"875C9B3225EF5E83B5E6E0BA905A448B","ErrorMan.js":"539CD2C30AA2B5609EE615A040CDBCA6","GImage.js":"8A31B421F899C53C1D76057F7AA35DC3","GColor.js":"3F152BEBB4545BCEF5D255A594DC52E2","symbolsearch.js":"54CAFE2C058A244D2FDCAC0443FD8293","Entity.js":"7C10DC4FFD31C005841E1DB7E3377467","KPosition.js":"A07B31F37C9CB1FA49A6B47BFF376522","KAlpha.js":"FDAC535470841697614A578B451F6D35","Sprite.js":"CD811FC36D62AC5077FDDF578C118BCF","GBox.js":"9C44756DBEB2733973B0BC3EC7784187","GButton.js":"00F4640559587F3C523855146ABE359C","GImage_Create.js":"ED2F46CFB944C53B9748D57BD8481FEA","symbolsearch_symbol.js":"ACE6991F318B4566099B0B201970B80F","symbolsearch.json":"72B06BD15FE02D21233621894E119A4C","GameRunner.js":"4EC5C05E34DD229518088607E762BDC4","KTrigger.js":"359598582677BA151569C2DA9B85F2C8","GMap.js":"6F664B3E3D5CEF53B028ECBDDDE836B6","GameParams.js":"51E7EECE2F2F5C7486F3C24306BD629E","Trial.js":"6171E3FA7940715F1573D01EBAF67D2F"}|{"symbols.png":"7961FD8CB80B8DC244C50F826F85496D","":"-1"}|.|.
Symbol Search|Symbol Search|script|3080D1BA430EDD8E29E4CA941C1AAD6E|9999|62c05e98-e847-4175-9b7a-59c1cb21fba9|12|af0dd3e0-1435-4e35-b4dd-46a8fd9b5428|2020/09/16 11:28:27|b2abceb4-51c2-4a2c-a371-c08ed66616fc|59.78260869565217|59.78260869565217|5376.0MB|47.28110475592382|{"type":"script","script":"symbolsearch","trialnum":"4","trialtype":"5","matchpairstop":"3","feedback":"0","lureperc":"100","leftcorrectperc":"50","startdelay":"1000","defval_survey_pack_id":"demo_survey","leftcorrect":"1","lure":"1"}|1|1|2|1|0|true|symbolsearch|LURE|189|201|1|1|{"GameEngine.js":"61FA031FC10C8D55D04FF952C4D14DB9","Tools.js":"CA63E8AEADAD3FB000F03128ED0B5770","GList.js":"532D667D75F0085221F727470CA83389","KTime.js":"875C9B3225EF5E83B5E6E0BA905A448B","ErrorMan.js":"539CD2C30AA2B5609EE615A040CDBCA6","GImage.js":"8A31B421F899C53C1D76057F7AA35DC3","GColor.js":"3F152BEBB4545BCEF5D255A594DC52E2","symbolsearch.js":"54CAFE2C058A244D2FDCAC0443FD8293","Entity.js":"7C10DC4FFD31C005841E1DB7E3377467","KPosition.js":"A07B31F37C9CB1FA49A6B47BFF376522","KAlpha.js":"FDAC535470841697614A578B451F6D35","Sprite.js":"CD811FC36D62AC5077FDDF578C118BCF","GBox.js":"9C44756DBEB2733973B0BC3EC7784187","GButton.js":"00F4640559587F3C523855146ABE359C","GImage_Create.js":"ED2F46CFB944C53B9748D57BD8481FEA","symbolsearch_symbol.js":"ACE6991F318B4566099B0B201970B80F","symbolsearch.json":"72B06BD15FE02D21233621894E119A4C","GameRunner.js":"4EC5C05E34DD229518088607E762BDC4","KTrigger.js":"359598582677BA151569C2DA9B85F2C8","GMap.js":"6F664B3E3D5CEF53B028ECBDDDE836B6","GameParams.js":"51E7EECE2F2F5C7486F3C24306BD629E","Trial.js":"6171E3FA7940715F1573D01EBAF67D2F"}|{"symbols.png":"7961FD8CB80B8DC244C50F826F85496D","":"-1"}|.|.
Symbol Search|Symbol Search|script|3080D1BA430EDD8E29E4CA941C1AAD6E|9999|62c05e98-e847-4175-9b7a-59c1cb21fba9|12|af0dd3e0-1435-4e35-b4dd-46a8fd9b5428|2020/09/16 11:28:28|2ce84e0b-0bfc-493d-a24e-78dfbcbc9859|60.0|60.0|5376.0MB|47.28639533769199|{"type":"script","script":"symbolsearch","trialnum":"4","trialtype":"5","matchpairstop":"3","feedback":"0","lureperc":"100","leftcorrectperc":"50","startdelay":"1000","defval_survey_pack_id":"demo_survey","leftcorrect":"0","lure":"1"}|1|1|3|1|0|true|symbolsearch|LURE|57|66|0|0|{"GameEngine.js":"61FA031FC10C8D55D04FF952C4D14DB9","Tools.js":"CA63E8AEADAD3FB000F03128ED0B5770","GList.js":"532D667D75F0085221F727470CA83389","KTime.js":"875C9B3225EF5E83B5E6E0BA905A448B","ErrorMan.js":"539CD2C30AA2B5609EE615A040CDBCA6","GImage.js":"8A31B421F899C53C1D76057F7AA35DC3","GColor.js":"3F152BEBB4545BCEF5D255A594DC52E2","symbolsearch.js":"54CAFE2C058A244D2FDCAC0443FD8293","Entity.js":"7C10DC4FFD31C005841E1DB7E3377467","KPosition.js":"A07B31F37C9CB1FA49A6B47BFF376522","KAlpha.js":"FDAC535470841697614A578B451F6D35","Sprite.js":"CD811FC36D62AC5077FDDF578C118BCF","GBox.js":"9C44756DBEB2733973B0BC3EC7784187","GButton.js":"00F4640559587F3C523855146ABE359C","GImage_Create.js":"ED2F46CFB944C53B9748D57BD8481FEA","symbolsearch_symbol.js":"ACE6991F318B4566099B0B201970B80F","symbolsearch.json":"72B06BD15FE02D21233621894E119A4C","GameRunner.js":"4EC5C05E34DD229518088607E762BDC4","KTrigger.js":"359598582677BA151569C2DA9B85F2C8","GMap.js":"6F664B3E3D5CEF53B028ECBDDDE836B6","GameParams.js":"51E7EECE2F2F5C7486F3C24306BD629E","Trial.js":"6171E3FA7940715F1573D01EBAF67D2F"}|{"symbols.png":"7961FD8CB80B8DC244C50F826F85496D","":"-1"}|.|.
Symbol Search|Symbol Search|script|3080D1BA430EDD8E29E4CA941C1AAD6E|9999|62c05e98-e847-4175-9b7a-59c1cb21fba9|12|af0dd3e0-1435-4e35-b4dd-46a8fd9b5428|2020/09/16 11:28:29|dc404bf1-9ca0-4288-b5cb-f36401f326c3|59.70149253731343|59.70149253731343|5403.0MB|47.523097340177195|{"type":"script","script":"symbolsearch","trialnum":"4","trialtype":"5","matchpairstop":"3","feedback":"0","lureperc":"100","leftcorrectperc":"50","startdelay":"1000","defval_survey_pack_id":"demo_survey","leftcorrect":"0","lure":"1"}|1|1|4|1|0|true|symbolsearch|LURE|524|537|0|0|{"GameEngine.js":"61FA031FC10C8D55D04FF952C4D14DB9","Tools.js":"CA63E8AEADAD3FB000F03128ED0B5770","GList.js":"532D667D75F0085221F727470CA83389","KTime.js":"875C9B3225EF5E83B5E6E0BA905A448B","ErrorMan.js":"539CD2C30AA2B5609EE615A040CDBCA6","GImage.js":"8A31B421F899C53C1D76057F7AA35DC3","GColor.js":"3F152BEBB4545BCEF5D255A594DC52E2","symbolsearch.js":"54CAFE2C058A244D2FDCAC0443FD8293","Entity.js":"7C10DC4FFD31C005841E1DB7E3377467","KPosition.js":"A07B31F37C9CB1FA49A6B47BFF376522","KAlpha.js":"FDAC535470841697614A578B451F6D35","Sprite.js":"CD811FC36D62AC5077FDDF578C118BCF","GBox.js":"9C44756DBEB2733973B0BC3EC7784187","GButton.js":"00F4640559587F3C523855146ABE359C","GImage_Create.js":"ED2F46CFB944C53B9748D57BD8481FEA","symbolsearch_symbol.js":"ACE6991F318B4566099B0B201970B80F","symbolsearch.json":"72B06BD15FE02D21233621894E119A4C","GameRunner.js":"4EC5C05E34DD229518088607E762BDC4","KTrigger.js":"359598582677BA151569C2DA9B85F2C8","GMap.js":"6F664B3E3D5CEF53B028ECBDDDE836B6","GameParams.js":"51E7EECE2F2F5C7486F3C24306BD629E","Trial.js":"6171E3FA7940715F1573D01EBAF67D2F"}|{"symbols.png":"7961FD8CB80B8DC244C50F826F85496D","":"-1"}|.|.
Symbol Search|Symbol Search|script|4647FBDDFFA044CDEDB40DF45448BDF6|9999|1cb97063-62d6-44f8-bec6-29e4c0d9792e|3|02b5530b-ecbc-4219-87ca-221de603d36d|2020/09/16 13:39:48|f26d87f0-bad7-4d92-95f7-39d070273b31|60.10280743376829|58.91656781336497|889.0MB|49.15020155199351|{"type":"script","script":"symbolsearch","trialnum":"11","trialtype":"5","matchpairstop":"3","feedback":"0","lureperc":"100","leftcorrectperc":"50","startdelay":"1000","defval_survey_pack_id":"demo_games","leftcorrect":"0","lure":"1"}|1|1|1|1|0|true|symbolsearch|LURE|1950|1957|0|0|{"GameEngine.js":"61FA031FC10C8D55D04FF952C4D14DB9","Tools.js":"CA63E8AEADAD3FB000F03128ED0B5770","GList.js":"532D667D75F0085221F727470CA83389","KTime.js":"875C9B3225EF5E83B5E6E0BA905A448B","ErrorMan.js":"539CD2C30AA2B5609EE615A040CDBCA6","GImage.js":"8A31B421F899C53C1D76057F7AA35DC3","GColor.js":"3F152BEBB4545BCEF5D255A594DC52E2","symbolsearch.js":"54CAFE2C058A244D2FDCAC0443FD8293","Entity.js":"7C10DC4FFD31C005841E1DB7E3377467","KPosition.js":"A07B31F37C9CB1FA49A6B47BFF376522","KAlpha.js":"FDAC535470841697614A578B451F6D35","Sprite.js":"CD811FC36D62AC5077FDDF578C118BCF","GBox.js":"9C44756DBEB2733973B0BC3EC7784187","GButton.js":"00F4640559587F3C523855146ABE359C","GImage_Create.js":"ED2F46CFB944C53B9748D57BD8481FEA","symbolsearch_symbol.js":"ACE6991F318B4566099B0B201970B80F","symbolsearch.json":"72B06BD15FE02D21233621894E119A4C","GameRunner.js":"4EC5C05E34DD229518088607E762BDC4","KTrigger.js":"359598582677BA151569C2DA9B85F2C8","GMap.js":"6F664B3E3D5CEF53B028ECBDDDE836B6","GameParams.js":"51E7EECE2F2F5C7486F3C24306BD629E","Trial.js":"6171E3FA7940715F1573D01EBAF67D2F"}|{"symbols.png":"7961FD8CB80B8DC244C50F826F85496D","":"-1"}|.|.
Symbol Search|Symbol Search|script|4647FBDDFFA044CDEDB40DF45448BDF6|9999|1cb97063-62d6-44f8-bec6-29e4c0d9792e|3|02b5530b-ecbc-4219-87ca-221de603d36d|2020/09/16 13:39:50|c3be5cce-1470-4139-9938-b2ca367f46e4|60.145406477197625|58.82352941176471|885.0MB|48.94282310899345|{"type":"script","script":"symbolsearch","trialnum":"11","trialtype":"5","matchpairstop":"3","feedback":"0","lureperc":"100","leftcorrectperc":"50","startdelay":"1000","defval_survey_pack_id":"demo_games","leftcorrect":"1","lure":"1"}|1|1|2|1|0|true|symbolsearch|LURE|957|960|1|1|{"GameEngine.js":"61FA031FC10C8D55D04FF952C4D14DB9","Tools.js":"CA63E8AEADAD3FB000F03128ED0B5770","GList.js":"532D667D75F0085221F727470CA83389","KTime.js":"875C9B3225EF5E83B5E6E0BA905A448B","ErrorMan.js":"539CD2C30AA2B5609EE615A040CDBCA6","GImage.js":"8A31B421F899C53C1D76057F7AA35DC3","GColor.js":"3F152BEBB4545BCEF5D255A594DC52E2","symbolsearch.js":"54CAFE2C058A244D2FDCAC0443FD8293","Entity.js":"7C10DC4FFD31C005841E1DB7E3377467","KPosition.js":"A07B31F37C9CB1FA49A6B47BFF376522","KAlpha.js":"FDAC535470841697614A578B451F6D35","Sprite.js":"CD811FC36D62AC5077FDDF578C118BCF","GBox.js":"9C44756DBEB2733973B0BC3EC7784187","GButton.js":"00F4640559587F3C523855146ABE359C","GImage_Create.js":"ED2F46CFB944C53B9748D57BD8481FEA","symbolsearch_symbol.js":"ACE6991F318B4566099B0B201970B80F","symbolsearch.json":"72B06BD15FE02D21233621894E119A4C","GameRunner.js":"4EC5C05E34DD229518088607E762BDC4","KTrigger.js":"359598582677BA151569C2DA9B85F2C8","GMap.js":"6F664B3E3D5CEF53B028ECBDDDE836B6","GameParams.js":"51E7EECE2F2F5C7486F3C24306BD629E","Trial.js":"6171E3FA7940715F1573D01EBAF67D2F"}|{"symbols.png":"7961FD8CB80B8DC244C50F826F85496D","":"-1"}|.|.
Symbol Search|Symbol Search|script|4647FBDDFFA044CDEDB40DF45448BDF6|9999|1cb97063-62d6-44f8-bec6-29e4c0d9792e|3|02b5530b-ecbc-4219-87ca-221de603d36d|2020/09/16 13:39:51|7f52a3f2-779b-49e6-9286-8f3feea7cd62|59.863945578231295|59.183673469387756|885.0MB|48.895995718638595|{"type":"script","script":"symbolsearch","trialnum":"11","trialtype":"5","matchpairstop":"3","feedback":"0","lureperc":"100","leftcorrectperc":"50","startdelay":"1000","defval_survey_pack_id":"demo_games","leftcorrect":"0","lure":"1"}|1|1|3|1|0|true|symbolsearch|LURE|907|917|0|0|{"GameEngine.js":"61FA031FC10C8D55D04FF952C4D14DB9","Tools.js":"CA63E8AEADAD3FB000F03128ED0B5770","GList.js":"532D667D75F0085221F727470CA83389","KTime.js":"875C9B3225EF5E83B5E6E0BA905A448B","ErrorMan.js":"539CD2C30AA2B5609EE615A040CDBCA6","GImage.js":"8A31B421F899C53C1D76057F7AA35DC3","GColor.js":"3F152BEBB4545BCEF5D255A594DC52E2","symbolsearch.js":"54CAFE2C058A244D2FDCAC0443FD8293","Entity.js":"7C10DC4FFD31C005841E1DB7E3377467","KPosition.js":"A07B31F37C9CB1FA49A6B47BFF376522","KAlpha.js":"FDAC535470841697614A578B451F6D35","Sprite.js":"CD811FC36D62AC5077FDDF578C118BCF","GBox.js":"9C44756DBEB2733973B0BC3EC7784187","GButton.js":"00F4640559587F3C523855146ABE359C","GImage_Create.js":"ED2F46CFB944C53B9748D57BD8481FEA","symbolsearch_symbol.js":"ACE6991F318B4566099B0B201970B80F","symbolsearch.json":"72B06BD15FE02D21233621894E119A4C","GameRunner.js":"4EC5C05E34DD229518088607E762BDC4","KTrigger.js":"359598582677BA151569C2DA9B85F2C8","GMap.js":"6F664B3E3D5CEF53B028ECBDDDE836B6","GameParams.js":"51E7EECE2F2F5C7486F3C24306BD629E","Trial.js":"6171E3FA7940715F1573D01EBAF67D2F"}|{"symbols.png":"7961FD8CB80B8DC244C50F826F85496D","":"-1"}|.|.
Symbol Search|Symbol Search|script|4647FBDDFFA044CDEDB40DF45448BDF6|9999|1cb97063-62d6-44f8-bec6-29e4c0d9792e|3|02b5530b-ecbc-4219-87ca-221de603d36d|2020/09/16 13:39:53|17becbf1-de10-4b22-8d7b-3f732c896b15|60.41923551171393|59.18618988902589|884.0MB|48.86254758267084|{"type":"script","script":"symbolsearch","trialnum":"11","trialtype":"5","matchpairstop":"3","feedback":"0","lureperc":"100","leftcorrectperc":"50","startdelay":"1000","defval_survey_pack_id":"demo_games","leftcorrect":"1","lure":"1"}|1|1|4|1|0|true|symbolsearch|LURE|1049|1067|0|1|{"GameEngine.js":"61FA031FC10C8D55D04FF952C4D14DB9","Tools.js":"CA63E8AEADAD3FB000F03128ED0B5770","GList.js":"532D667D75F0085221F727470CA83389","KTime.js":"875C9B3225EF5E83B5E6E0BA905A448B","ErrorMan.js":"539CD2C30AA2B5609EE615A040CDBCA6","GImage.js":"8A31B421F899C53C1D76057F7AA35DC3","GColor.js":"3F152BEBB4545BCEF5D255A594DC52E2","symbolsearch.js":"54CAFE2C058A244D2FDCAC0443FD8293","Entity.js":"7C10DC4FFD31C005841E1DB7E3377467","KPosition.js":"A07B31F37C9CB1FA49A6B47BFF376522","KAlpha.js":"FDAC535470841697614A578B451F6D35","Sprite.js":"CD811FC36D62AC5077FDDF578C118BCF","GBox.js":"9C44756DBEB2733973B0BC3EC7784187","GButton.js":"00F4640559587F3C523855146ABE359C","GImage_Create.js":"ED2F46CFB944C53B9748D57BD8481FEA","symbolsearch_symbol.js":"ACE6991F318B4566099B0B201970B80F","symbolsearch.json":"72B06BD15FE02D21233621894E119A4C","GameRunner.js":"4EC5C05E34DD229518088607E762BDC4","KTrigger.js":"359598582677BA151569C2DA9B85F2C8","GMap.js":"6F664B3E3D5CEF53B028ECBDDDE836B6","GameParams.js":"51E7EECE2F2F5C7486F3C24306BD629E","Trial.js":"6171E3FA7940715F1573D01EBAF67D2F"}|{"symbols.png":"7961FD8CB80B8DC244C50F826F85496D","":"-1"}|.|.
Symbol Search|Symbol Search|script|4647FBDDFFA044CDEDB40DF45448BDF6|9999|1cb97063-62d6-44f8-bec6-29e4c0d9792e|3|02b5530b-ecbc-4219-87ca-221de603d36d|2020/09/16 13:39:54|4e29b9fd-08ba-4e5e-af7e-92232aed01c2|59.71087366436204|59.71087366436204|883.0MB|48.78227205634824|{"type":"script","script":"symbolsearch","trialnum":"11","trialtype":"5","matchpairstop":"3","feedback":"0","lureperc":"100","leftcorrectperc":"50","startdelay":"1000","defval_survey_pack_id":"demo_games","leftcorrect":"1","lure":"1"}|1|1|5|1|0|true|symbolsearch|LURE|1037|1049|1|1|{"GameEngine.js":"61FA031FC10C8D55D04FF952C4D14DB9","Tools.js":"CA63E8AEADAD3FB000F03128ED0B5770","GList.js":"532D667D75F0085221F727470CA83389","KTime.js":"875C9B3225EF5E83B5E6E0BA905A448B","ErrorMan.js":"539CD2C30AA2B5609EE615A040CDBCA6","GImage.js":"8A31B421F899C53C1D76057F7AA35DC3","GColor.js":"3F152BEBB4545BCEF5D255A594DC52E2","symbolsearch.js":"54CAFE2C058A244D2FDCAC0443FD8293","Entity.js":"7C10DC4FFD31C005841E1DB7E3377467","KPosition.js":"A07B31F37C9CB1FA49A6B47BFF376522","KAlpha.js":"FDAC535470841697614A578B451F6D35","Sprite.js":"CD811FC36D62AC5077FDDF578C118BCF","GBox.js":"9C44756DBEB2733973B0BC3EC7784187","GButton.js":"00F4640559587F3C523855146ABE359C","GImage_Create.js":"ED2F46CFB944C53B9748D57BD8481FEA","symbolsearch_symbol.js":"ACE6991F318B4566099B0B201970B80F","symbolsearch.json":"72B06BD15FE02D21233621894E119A4C","GameRunner.js":"4EC5C05E34DD229518088607E762BDC4","KTrigger.js":"359598582677BA151569C2DA9B85F2C8","GMap.js":"6F664B3E3D5CEF53B028ECBDDDE836B6","GameParams.js":"51E7EECE2F2F5C7486F3C24306BD629E","Trial.js":"6171E3FA7940715F1573D01EBAF67D2F"}|{"symbols.png":"7961FD8CB80B8DC244C50F826F85496D","":"-1"}|.|.
Symbol Search|Symbol Search|script|4647FBDDFFA044CDEDB40DF45448BDF6|9999|1cb97063-62d6-44f8-bec6-29e4c0d9792e|3|02b5530b-ecbc-4219-87ca-221de603d36d|2020/09/16 13:39:56|73cafcc8-69fb-446a-80c6-c53d159ab43a|60.33578174186779|58.761804826862544|881.0MB|48.699191202492855|{"type":"script","script":"symbolsearch","trialnum":"11","trialtype":"5","matchpairstop":"3","feedback":"0","lureperc":"100","leftcorrectperc":"50","startdelay":"1000","defval_survey_pack_id":"demo_games","leftcorrect":"1","lure":"1"}|1|1|6|1|0|true|symbolsearch|LURE|1312|1324|1|1|{"GameEngine.js":"61FA031FC10C8D55D04FF952C4D14DB9","Tools.js":"CA63E8AEADAD3FB000F03128ED0B5770","GList.js":"532D667D75F0085221F727470CA83389","KTime.js":"875C9B3225EF5E83B5E6E0BA905A448B","ErrorMan.js":"539CD2C30AA2B5609EE615A040CDBCA6","GImage.js":"8A31B421F899C53C1D76057F7AA35DC3","GColor.js":"3F152BEBB4545BCEF5D255A594DC52E2","symbolsearch.js":"54CAFE2C058A244D2FDCAC0443FD8293","Entity.js":"7C10DC4FFD31C005841E1DB7E3377467","KPosition.js":"A07B31F37C9CB1FA49A6B47BFF376522","KAlpha.js":"FDAC535470841697614A578B451F6D35","Sprite.js":"CD811FC36D62AC5077FDDF578C118BCF","GBox.js":"9C44756DBEB2733973B0BC3EC7784187","GButton.js":"00F4640559587F3C523855146ABE359C","GImage_Create.js":"ED2F46CFB944C53B9748D57BD8481FEA","symbolsearch_symbol.js":"ACE6991F318B4566099B0B201970B80F","symbolsearch.json":"72B06BD15FE02D21233621894E119A4C","GameRunner.js":"4EC5C05E34DD229518088607E762BDC4","KTrigger.js":"359598582677BA151569C2DA9B85F2C8","GMap.js":"6F664B3E3D5CEF53B028ECBDDDE836B6","GameParams.js":"51E7EECE2F2F5C7486F3C24306BD629E","Trial.js":"6171E3FA7940715F1573D01EBAF67D2F"}|{"symbols.png":"7961FD8CB80B8DC244C50F826F85496D","":"-1"}|.|.
Symbol Search|Symbol Search|script|4647FBDDFFA044CDEDB40DF45448BDF6|9999|1cb97063-62d6-44f8-bec6-29e4c0d9792e|3|02b5530b-ecbc-4219-87ca-221de603d36d|2020/09/16 13:39:59|284c974e-ed4e-46b6-81f9-00d4cc1aa1dc|59.86999657885734|58.82352941176471|876.0MB|48.438943125221186|{"type":"script","script":"symbolsearch","trialnum":"11","trialtype":"5","matchpairstop":"3","feedback":"0","lureperc":"100","leftcorrectperc":"50","startdelay":"1000","defval_survey_pack_id":"demo_games","leftcorrect":"0","lure":"1"}|1|1|7|1|0|true|symbolsearch|LURE|2374|2381|0|0|{"GameEngine.js":"61FA031FC10C8D55D04FF952C4D14DB9","Tools.js":"CA63E8AEADAD3FB000F03128ED0B5770","GList.js":"532D667D75F0085221F727470CA83389","KTime.js":"875C9B3225EF5E83B5E6E0BA905A448B","ErrorMan.js":"539CD2C30AA2B5609EE615A040CDBCA6","GImage.js":"8A31B421F899C53C1D76057F7AA35DC3","GColor.js":"3F152BEBB4545BCEF5D255A594DC52E2","symbolsearch.js":"54CAFE2C058A244D2FDCAC0443FD8293","Entity.js":"7C10DC4FFD31C005841E1DB7E3377467","KPosition.js":"A07B31F37C9CB1FA49A6B47BFF376522","KAlpha.js":"FDAC535470841697614A578B451F6D35","Sprite.js":"CD811FC36D62AC5077FDDF578C118BCF","GBox.js":"9C44756DBEB2733973B0BC3EC7784187","GButton.js":"00F4640559587F3C523855146ABE359C","GImage_Create.js":"ED2F46CFB944C53B9748D57BD8481FEA","symbolsearch_symbol.js":"ACE6991F318B4566099B0B201970B80F","symbolsearch.json":"72B06BD15FE02D21233621894E119A4C","GameRunner.js":"4EC5C05E34DD229518088607E762BDC4","KTrigger.js":"359598582677BA151569C2DA9B85F2C8","GMap.js":"6F664B3E3D5CEF53B028ECBDDDE836B6","GameParams.js":"51E7EECE2F2F5C7486F3C24306BD629E","Trial.js":"6171E3FA7940715F1573D01EBAF67D2F"}|{"symbols.png":"7961FD8CB80B8DC244C50F826F85496D","":"-1"}|.|.
Symbol Search|Symbol Search|script|4647FBDDFFA044CDEDB40DF45448BDF6|9999|1cb97063-62d6-44f8-bec6-29e4c0d9792e|3|02b5530b-ecbc-4219-87ca-221de603d36d|2020/09/16 13:40:01|56725eec-9294-4145-9f1a-b8731425e185|60.19417475728155|58.737864077669904|875.0MB|48.39211573486634|{"type":"script","script":"symbolsearch","trialnum":"11","trialtype":"5","matchpairstop":"3","feedback":"0","lureperc":"100","leftcorrectperc":"50","startdelay":"1000","defval_survey_pack_id":"demo_games","leftcorrect":"0","lure":"1"}|1|1|8|1|0|true|symbolsearch|LURE|1462|1472|0|0|{"GameEngine.js":"61FA031FC10C8D55D04FF952C4D14DB9","Tools.js":"CA63E8AEADAD3FB000F03128ED0B5770","GList.js":"532D667D75F0085221F727470CA83389","KTime.js":"875C9B3225EF5E83B5E6E0BA905A448B","ErrorMan.js":"539CD2C30AA2B5609EE615A040CDBCA6","GImage.js":"8A31B421F899C53C1D76057F7AA35DC3","GColor.js":"3F152BEBB4545BCEF5D255A594DC52E2","symbolsearch.js":"54CAFE2C058A244D2FDCAC0443FD8293","Entity.js":"7C10DC4FFD31C005841E1DB7E3377467","KPosition.js":"A07B31F37C9CB1FA49A6B47BFF376522","KAlpha.js":"FDAC535470841697614A578B451F6D35","Sprite.js":"CD811FC36D62AC5077FDDF578C118BCF","GBox.js":"9C44756DBEB2733973B0BC3EC7784187","GButton.js":"00F4640559587F3C523855146ABE359C","GImage_Create.js":"ED2F46CFB944C53B9748D57BD8481FEA","symbolsearch_symbol.js":"ACE6991F318B4566099B0B201970B80F","symbolsearch.json":"72B06BD15FE02D21233621894E119A4C","GameRunner.js":"4EC5C05E34DD229518088607E762BDC4","KTrigger.js":"359598582677BA151569C2DA9B85F2C8","GMap.js":"6F664B3E3D5CEF53B028ECBDDDE836B6","GameParams.js":"51E7EECE2F2F5C7486F3C24306BD629E","Trial.js":"6171E3FA7940715F1573D01EBAF67D2F"}|{"symbols.png":"7961FD8CB80B8DC244C50F826F85496D","":"-1"}|.|.
Symbol Search|Symbol Search|script|4647FBDDFFA044CDEDB40DF45448BDF6|9999|1cb97063-62d6-44f8-bec6-29e4c0d9792e|3|02b5530b-ecbc-4219-87ca-221de603d36d|2020/09/16 13:40:04|e6ebcc10-26d5-4086-a850-bcfd2b67a82c|60.10452961672474|60.078363082281236|874.0MB|48.28767123287671|{"type":"script","script":"symbolsearch","trialnum":"11","trialtype":"5","matchpairstop":"3","feedback":"0","lureperc":"100","leftcorrectperc":"50","startdelay":"1000","defval_survey_pack_id":"demo_games","leftcorrect":"1","lure":"1"}|1|1|9|1|0|true|symbolsearch|LURE|1754|1758|1|1|{"GameEngine.js":"61FA031FC10C8D55D04FF952C4D14DB9","Tools.js":"CA63E8AEADAD3FB000F03128ED0B5770","GList.js":"532D667D75F0085221F727470CA83389","KTime.js":"875C9B3225EF5E83B5E6E0BA905A448B","ErrorMan.js":"539CD2C30AA2B5609EE615A040CDBCA6","GImage.js":"8A31B421F899C53C1D76057F7AA35DC3","GColor.js":"3F152BEBB4545BCEF5D255A594DC52E2","symbolsearch.js":"54CAFE2C058A244D2FDCAC0443FD8293","Entity.js":"7C10DC4FFD31C005841E1DB7E3377467","KPosition.js":"A07B31F37C9CB1FA49A6B47BFF376522","KAlpha.js":"FDAC535470841697614A578B451F6D35","Sprite.js":"CD811FC36D62AC5077FDDF578C118BCF","GBox.js":"9C44756DBEB2733973B0BC3EC7784187","GButton.js":"00F4640559587F3C523855146ABE359C","GImage_Create.js":"ED2F46CFB944C53B9748D57BD8481FEA","symbolsearch_symbol.js":"ACE6991F318B4566099B0B201970B80F","symbolsearch.json":"72B06BD15FE02D21233621894E119A4C","GameRunner.js":"4EC5C05E34DD229518088607E762BDC4","KTrigger.js":"359598582677BA151569C2DA9B85F2C8","GMap.js":"6F664B3E3D5CEF53B028ECBDDDE836B6","GameParams.js":"51E7EECE2F2F5C7486F3C24306BD629E","Trial.js":"6171E3FA7940715F1573D01EBAF67D2F"}|{"symbols.png":"7961FD8CB80B8DC244C50F826F85496D","":"-1"}|.|.
Symbol Search|Symbol Search|script|4647FBDDFFA044CDEDB40DF45448BDF6|9999|1cb97063-62d6-44f8-bec6-29e4c0d9792e|3|02b5530b-ecbc-4219-87ca-221de603d36d|2020/09/16 13:40:05|029427fe-e815-4ead-84d4-59ce09f70399|60.01091107474086|60.01091107474086|871.0MB|48.141578406746596|{"type":"script","script":"symbolsearch","trialnum":"11","trialtype":"5","matchpairstop":"3","feedback":"0","lureperc":"100","leftcorrectperc":"50","startdelay":"1000","defval_survey_pack_id":"demo_games","leftcorrect":"0","lure":"1"}|1|1|10|1|0|true|symbolsearch|LURE|1288|1294|0|0|{"GameEngine.js":"61FA031FC10C8D55D04FF952C4D14DB9","Tools.js":"CA63E8AEADAD3FB000F03128ED0B5770","GList.js":"532D667D75F0085221F727470CA83389","KTime.js":"875C9B3225EF5E83B5E6E0BA905A448B","ErrorMan.js":"539CD2C30AA2B5609EE615A040CDBCA6","GImage.js":"8A31B421F899C53C1D76057F7AA35DC3","GColor.js":"3F152BEBB4545BCEF5D255A594DC52E2","symbolsearch.js":"54CAFE2C058A244D2FDCAC0443FD8293","Entity.js":"7C10DC4FFD31C005841E1DB7E3377467","KPosition.js":"A07B31F37C9CB1FA49A6B47BFF376522","KAlpha.js":"FDAC535470841697614A578B451F6D35","Sprite.js":"CD811FC36D62AC5077FDDF578C118BCF","GBox.js":"9C44756DBEB2733973B0BC3EC7784187","GButton.js":"00F4640559587F3C523855146ABE359C","GImage_Create.js":"ED2F46CFB944C53B9748D57BD8481FEA","symbolsearch_symbol.js":"ACE6991F318B4566099B0B201970B80F","symbolsearch.json":"72B06BD15FE02D21233621894E119A4C","GameRunner.js":"4EC5C05E34DD229518088607E762BDC4","KTrigger.js":"359598582677BA151569C2DA9B85F2C8","GMap.js":"6F664B3E3D5CEF53B028ECBDDDE836B6","GameParams.js":"51E7EECE2F2F5C7486F3C24306BD629E","Trial.js":"6171E3FA7940715F1573D01EBAF67D2F"}|{"symbols.png":"7961FD8CB80B8DC244C50F826F85496D","":"-1"}|.|.
Symbol Search|Symbol Search|script|4647FBDDFFA044CDEDB40DF45448BDF6|9999|1cb97063-62d6-44f8-bec6-29e4c0d9792e|3|02b5530b-ecbc-4219-87ca-221de603d36d|2020/09/16 13:40:07|3b4845a3-6b0b-4edb-bc99-230e380f9b3c|60.20328381548085|55.51211884284598|868.0MB|47.98102735410139|{"type":"script","script":"symbolsearch","trialnum":"11","trialtype":"5","matchpairstop":"3","feedback":"0","lureperc":"100","leftcorrectperc":"50","startdelay":"1000","defval_survey_pack_id":"demo_games","leftcorrect":"1","lure":"1"}|1|1|11|1|0|true|symbolsearch|LURE|727|735|1|1|{"GameEngine.js":"61FA031FC10C8D55D04FF952C4D14DB9","Tools.js":"CA63E8AEADAD3FB000F03128ED0B5770","GList.js":"532D667D75F0085221F727470CA83389","KTime.js":"875C9B3225EF5E83B5E6E0BA905A448B","ErrorMan.js":"539CD2C30AA2B5609EE615A040CDBCA6","GImage.js":"8A31B421F899C53C1D76057F7AA35DC3","GColor.js":"3F152BEBB4545BCEF5D255A594DC52E2","symbolsearch.js":"54CAFE2C058A244D2FDCAC0443FD8293","Entity.js":"7C10DC4FFD31C005841E1DB7E3377467","KPosition.js":"A07B31F37C9CB1FA49A6B47BFF376522","KAlpha.js":"FDAC535470841697614A578B451F6D35","Sprite.js":"CD811FC36D62AC5077FDDF578C118BCF","GBox.js":"9C44756DBEB2733973B0BC3EC7784187","GButton.js":"00F4640559587F3C523855146ABE359C","GImage_Create.js":"ED2F46CFB944C53B9748D57BD8481FEA","symbolsearch_symbol.js":"ACE6991F318B4566099B0B201970B80F","symbolsearch.json":"72B06BD15FE02D21233621894E119A4C","GameRunner.js":"4EC5C05E34DD229518088607E762BDC4","KTrigger.js":"359598582677BA151569C2DA9B85F2C8","GMap.js":"6F664B3E3D5CEF53B028ECBDDDE836B6","GameParams.js":"51E7EECE2F2F5C7486F3C24306BD629E","Trial.js":"6171E3FA7940715F1573D01EBAF67D2F"}|{"symbols.png":"7961FD8CB80B8DC244C50F826F85496D","":"-1"}|.|.
Symbol Search|Symbol Search|script|3080D1BA430EDD8E29E4CA941C1AAD6E|9999|81bf4ade-9a7d-49d0-9001-922cd7c1ea40|4|a7975526-5e90-498d-99d0-78558a991443|2020/09/16 13:41:51|68507076-cf36-4e61-a9e3-db3bb95ce396|60.31468531468532|55.94405594405595|929.0MB|51.35130469309716|{"type":"script","script":"symbolsearch","trialnum":"4","trialtype":"5","matchpairstop":"3","feedback":"0","lureperc":"100","leftcorrectperc":"50","startdelay":"1000","defval_survey_pack_id":"demo_survey","leftcorrect":"1","lure":"1"}|1|1|1|1|0|true|symbolsearch|LURE|523|545|1|1|{"GameEngine.js":"61FA031FC10C8D55D04FF952C4D14DB9","Tools.js":"CA63E8AEADAD3FB000F03128ED0B5770","GList.js":"532D667D75F0085221F727470CA83389","KTime.js":"875C9B3225EF5E83B5E6E0BA905A448B","ErrorMan.js":"539CD2C30AA2B5609EE615A040CDBCA6","GImage.js":"8A31B421F899C53C1D76057F7AA35DC3","GColor.js":"3F152BEBB4545BCEF5D255A594DC52E2","symbolsearch.js":"54CAFE2C058A244D2FDCAC0443FD8293","Entity.js":"7C10DC4FFD31C005841E1DB7E3377467","KPosition.js":"A07B31F37C9CB1FA49A6B47BFF376522","KAlpha.js":"FDAC535470841697614A578B451F6D35","Sprite.js":"CD811FC36D62AC5077FDDF578C118BCF","GBox.js":"9C44756DBEB2733973B0BC3EC7784187","GButton.js":"00F4640559587F3C523855146ABE359C","GImage_Create.js":"ED2F46CFB944C53B9748D57BD8481FEA","symbolsearch_symbol.js":"ACE6991F318B4566099B0B201970B80F","symbolsearch.json":"72B06BD15FE02D21233621894E119A4C","GameRunner.js":"4EC5C05E34DD229518088607E762BDC4","KTrigger.js":"359598582677BA151569C2DA9B85F2C8","GMap.js":"6F664B3E3D5CEF53B028ECBDDDE836B6","GameParams.js":"51E7EECE2F2F5C7486F3C24306BD629E","Trial.js":"6171E3FA7940715F1573D01EBAF67D2F"}|{"symbols.png":"7961FD8CB80B8DC244C50F826F85496D","":"-1"}|.|.
Symbol Search|Symbol Search|script|3080D1BA430EDD8E29E4CA941C1AAD6E|9999|81bf4ade-9a7d-49d0-9001-922cd7c1ea40|4|a7975526-5e90-498d-99d0-78558a991443|2020/09/16 13:41:52|c593b6d5-5e62-4537-a92e-dd76c1102fbe|60.790273556231|59.27051671732522|928.0MB|51.267792250390585|{"type":"script","script":"symbolsearch","trialnum":"4","trialtype":"5","matchpairstop":"3","feedback":"0","lureperc":"100","leftcorrectperc":"50","startdelay":"1000","defval_survey_pack_id":"demo_survey","leftcorrect":"1","lure":"1"}|1|1|2|1|0|true|symbolsearch|LURE|104|111|1|1|{"GameEngine.js":"61FA031FC10C8D55D04FF952C4D14DB9","Tools.js":"CA63E8AEADAD3FB000F03128ED0B5770","GList.js":"532D667D75F0085221F727470CA83389","KTime.js":"875C9B3225EF5E83B5E6E0BA905A448B","ErrorMan.js":"539CD2C30AA2B5609EE615A040CDBCA6","GImage.js":"8A31B421F899C53C1D76057F7AA35DC3","GColor.js":"3F152BEBB4545BCEF5D255A594DC52E2","symbolsearch.js":"54CAFE2C058A244D2FDCAC0443FD8293","Entity.js":"7C10DC4FFD31C005841E1DB7E3377467","KPosition.js":"A07B31F37C9CB1FA49A6B47BFF376522","KAlpha.js":"FDAC535470841697614A578B451F6D35","Sprite.js":"CD811FC36D62AC5077FDDF578C118BCF","GBox.js":"9C44756DBEB2733973B0BC3EC7784187","GButton.js":"00F4640559587F3C523855146ABE359C","GImage_Create.js":"ED2F46CFB944C53B9748D57BD8481FEA","symbolsearch_symbol.js":"ACE6991F318B4566099B0B201970B80F","symbolsearch.json":"72B06BD15FE02D21233621894E119A4C","GameRunner.js":"4EC5C05E34DD229518088607E762BDC4","KTrigger.js":"359598582677BA151569C2DA9B85F2C8","GMap.js":"6F664B3E3D5CEF53B028ECBDDDE836B6","GameParams.js":"51E7EECE2F2F5C7486F3C24306BD629E","Trial.js":"6171E3FA7940715F1573D01EBAF67D2F"}|{"symbols.png":"7961FD8CB80B8DC244C50F826F85496D","":"-1"}|.|.
Symbol Search|Symbol Search|script|3080D1BA430EDD8E29E4CA941C1AAD6E|9999|81bf4ade-9a7d-49d0-9001-922cd7c1ea40|4|a7975526-5e90-498d-99d0-78558a991443|2020/09/16 13:41:52|8fcec2f2-7481-4e28-a4ba-262a2748ed6c|61.46926536731634|59.97001499250374|925.0MB|51.14414204452271|{"type":"script","script":"symbolsearch","trialnum":"4","trialtype":"5","matchpairstop":"3","feedback":"0","lureperc":"100","leftcorrectperc":"50","startdelay":"1000","defval_survey_pack_id":"demo_survey","leftcorrect":"0","lure":"1"}|1|1|3|1|0|true|symbolsearch|LURE|119|126|1|0|{"GameEngine.js":"61FA031FC10C8D55D04FF952C4D14DB9","Tools.js":"CA63E8AEADAD3FB000F03128ED0B5770","GList.js":"532D667D75F0085221F727470CA83389","KTime.js":"875C9B3225EF5E83B5E6E0BA905A448B","ErrorMan.js":"539CD2C30AA2B5609EE615A040CDBCA6","GImage.js":"8A31B421F899C53C1D76057F7AA35DC3","GColor.js":"3F152BEBB4545BCEF5D255A594DC52E2","symbolsearch.js":"54CAFE2C058A244D2FDCAC0443FD8293","Entity.js":"7C10DC4FFD31C005841E1DB7E3377467","KPosition.js":"A07B31F37C9CB1FA49A6B47BFF376522","KAlpha.js":"FDAC535470841697614A578B451F6D35","Sprite.js":"CD811FC36D62AC5077FDDF578C118BCF","GBox.js":"9C44756DBEB2733973B0BC3EC7784187","GButton.js":"00F4640559587F3C523855146ABE359C","GImage_Create.js":"ED2F46CFB944C53B9748D57BD8481FEA","symbolsearch_symbol.js":"ACE6991F318B4566099B0B201970B80F","symbolsearch.json":"72B06BD15FE02D21233621894E119A4C","GameRunner.js":"4EC5C05E34DD229518088607E762BDC4","KTrigger.js":"359598582677BA151569C2DA9B85F2C8","GMap.js":"6F664B3E3D5CEF53B028ECBDDDE836B6","GameParams.js":"51E7EECE2F2F5C7486F3C24306BD629E","Trial.js":"6171E3FA7940715F1573D01EBAF67D2F"}|{"symbols.png":"7961FD8CB80B8DC244C50F826F85496D","":"-1"}|.|.
Symbol Search|Symbol Search|script|3080D1BA430EDD8E29E4CA941C1AAD6E|9999|81bf4ade-9a7d-49d0-9001-922cd7c1ea40|4|a7975526-5e90-498d-99d0-78558a991443|2020/09/16 13:41:53|b26389c9-6500-41e5-b593-1a6add04e1d3|60.10928961748634|60.10928961748634|929.0MB|51.364468153058674|{"type":"script","script":"symbolsearch","trialnum":"4","trialtype":"5","matchpairstop":"3","feedback":"0","lureperc":"100","leftcorrectperc":"50","startdelay":"1000","defval_survey_pack_id":"demo_survey","leftcorrect":"0","lure":"1"}|1|1|4|1|0|true|symbolsearch|LURE|186|191|1|0|{"GameEngine.js":"61FA031FC10C8D55D04FF952C4D14DB9","Tools.js":"CA63E8AEADAD3FB000F03128ED0B5770","GList.js":"532D667D75F0085221F727470CA83389","KTime.js":"875C9B3225EF5E83B5E6E0BA905A448B","ErrorMan.js":"539CD2C30AA2B5609EE615A040CDBCA6","GImage.js":"8A31B421F899C53C1D76057F7AA35DC3","GColor.js":"3F152BEBB4545BCEF5D255A594DC52E2","symbolsearch.js":"54CAFE2C058A244D2FDCAC0443FD8293","Entity.js":"7C10DC4FFD31C005841E1DB7E3377467","KPosition.js":"A07B31F37C9CB1FA49A6B47BFF376522","KAlpha.js":"FDAC535470841697614A578B451F6D35","Sprite.js":"CD811FC36D62AC5077FDDF578C118BCF","GBox.js":"9C44756DBEB2733973B0BC3EC7784187","GButton.js":"00F4640559587F3C523855146ABE359C","GImage_Create.js":"ED2F46CFB944C53B9748D57BD8481FEA","symbolsearch_symbol.js":"ACE6991F318B4566099B0B201970B80F","symbolsearch.json":"72B06BD15FE02D21233621894E119A4C","GameRunner.js":"4EC5C05E34DD229518088607E762BDC4","KTrigger.js":"359598582677BA151569C2DA9B85F2C8","GMap.js":"6F664B3E3D5CEF53B028ECBDDDE836B6","GameParams.js":"51E7EECE2F2F5C7486F3C24306BD629E","Trial.js":"6171E3FA7940715F1573D01EBAF67D2F"}|{"symbols.png":"7961FD8CB80B8DC244C50F826F85496D","":"-1"}|.|.
Symbol Search|Symbol Search|script|3080D1BA430EDD8E29E4CA941C1AAD6E|9999|637ba272-d9bb-4a27-bc8c-064fbe1b0a0e|6|7c7e2738-0e5a-4094-8c4a-3e1e66b553e7|2020/09/16 15:13:03|783f55d6-a4e4-43ce-9fb8-6650cd07cacc|60.5296343001261|58.007566204287514|822.0MB|45.427531915995544|{"type":"script","script":"symbolsearch","trialnum":"4","trialtype":"5","matchpairstop":"3","feedback":"0","lureperc":"100","leftcorrectperc":"50","startdelay":"1000","defval_survey_pack_id":"demo_survey","leftcorrect":"0","lure":"1"}|1|1|1|1|0|true|symbolsearch|LURE|214|228|1|0|{"GameEngine.js":"61FA031FC10C8D55D04FF952C4D14DB9","Tools.js":"CA63E8AEADAD3FB000F03128ED0B5770","GList.js":"532D667D75F0085221F727470CA83389","KTime.js":"875C9B3225EF5E83B5E6E0BA905A448B","ErrorMan.js":"539CD2C30AA2B5609EE615A040CDBCA6","GImage.js":"8A31B421F899C53C1D76057F7AA35DC3","GColor.js":"3F152BEBB4545BCEF5D255A594DC52E2","symbolsearch.js":"54CAFE2C058A244D2FDCAC0443FD8293","Entity.js":"7C10DC4FFD31C005841E1DB7E3377467","KPosition.js":"A07B31F37C9CB1FA49A6B47BFF376522","KAlpha.js":"FDAC535470841697614A578B451F6D35","Sprite.js":"CD811FC36D62AC5077FDDF578C118BCF","GBox.js":"9C44756DBEB2733973B0BC3EC7784187","GButton.js":"00F4640559587F3C523855146ABE359C","GImage_Create.js":"ED2F46CFB944C53B9748D57BD8481FEA","symbolsearch_symbol.js":"ACE6991F318B4566099B0B201970B80F","symbolsearch.json":"72B06BD15FE02D21233621894E119A4C","GameRunner.js":"4EC5C05E34DD229518088607E762BDC4","KTrigger.js":"359598582677BA151569C2DA9B85F2C8","GMap.js":"6F664B3E3D5CEF53B028ECBDDDE836B6","GameParams.js":"51E7EECE2F2F5C7486F3C24306BD629E","Trial.js":"6171E3FA7940715F1573D01EBAF67D2F"}|{"symbols.png":"7961FD8CB80B8DC244C50F826F85496D","":"-1"}|.|.
Symbol Search|Symbol Search|script|3080D1BA430EDD8E29E4CA941C1AAD6E|9999|637ba272-d9bb-4a27-bc8c-064fbe1b0a0e|6|7c7e2738-0e5a-4094-8c4a-3e1e66b553e7|2020/09/16 15:13:04|e2904f14-469d-45e6-b4cd-ae2470f31c01|61.7283950617284|58.20105820105821|830.0MB|45.878110676645|{"type":"script","script":"symbolsearch","trialnum":"4","trialtype":"5","matchpairstop":"3","feedback":"0","lureperc":"100","leftcorrectperc":"50","startdelay":"1000","defval_survey_pack_id":"demo_survey","leftcorrect":"1","lure":"1"}|1|1|2|1|0|true|symbolsearch|LURE|-1|12|1|1|{"GameEngine.js":"61FA031FC10C8D55D04FF952C4D14DB9","Tools.js":"CA63E8AEADAD3FB000F03128ED0B5770","GList.js":"532D667D75F0085221F727470CA83389","KTime.js":"875C9B3225EF5E83B5E6E0BA905A448B","ErrorMan.js":"539CD2C30AA2B5609EE615A040CDBCA6","GImage.js":"8A31B421F899C53C1D76057F7AA35DC3","GColor.js":"3F152BEBB4545BCEF5D255A594DC52E2","symbolsearch.js":"54CAFE2C058A244D2FDCAC0443FD8293","Entity.js":"7C10DC4FFD31C005841E1DB7E3377467","KPosition.js":"A07B31F37C9CB1FA49A6B47BFF376522","KAlpha.js":"FDAC535470841697614A578B451F6D35","Sprite.js":"CD811FC36D62AC5077FDDF578C118BCF","GBox.js":"9C44756DBEB2733973B0BC3EC7784187","GButton.js":"00F4640559587F3C523855146ABE359C","GImage_Create.js":"ED2F46CFB944C53B9748D57BD8481FEA","symbolsearch_symbol.js":"ACE6991F318B4566099B0B201970B80F","symbolsearch.json":"72B06BD15FE02D21233621894E119A4C","GameRunner.js":"4EC5C05E34DD229518088607E762BDC4","KTrigger.js":"359598582677BA151569C2DA9B85F2C8","GMap.js":"6F664B3E3D5CEF53B028ECBDDDE836B6","GameParams.js":"51E7EECE2F2F5C7486F3C24306BD629E","Trial.js":"6171E3FA7940715F1573D01EBAF67D2F"}|{"symbols.png":"7961FD8CB80B8DC244C50F826F85496D","":"-1"}|.|.
Symbol Search|Symbol Search|script|3080D1BA430EDD8E29E4CA941C1AAD6E|9999|637ba272-d9bb-4a27-bc8c-064fbe1b0a0e|6|7c7e2738-0e5a-4094-8c4a-3e1e66b553e7|2020/09/16 15:13:05|6c1e08a4-1144-4534-98d9-ca6563a7c8fa|60.483870967741936|59.475806451612904|830.0MB|45.87962123762419|{"type":"script","script":"symbolsearch","trialnum":"4","trialtype":"5","matchpairstop":"3","feedback":"0","lureperc":"100","leftcorrectperc":"50","startdelay":"1000","defval_survey_pack_id":"demo_survey","leftcorrect":"1","lure":"1"}|1|1|3|1|0|true|symbolsearch|LURE|432|447|1|1|{"GameEngine.js":"61FA031FC10C8D55D04FF952C4D14DB9","Tools.js":"CA63E8AEADAD3FB000F03128ED0B5770","GList.js":"532D667D75F0085221F727470CA83389","KTime.js":"875C9B3225EF5E83B5E6E0BA905A448B","ErrorMan.js":"539CD2C30AA2B5609EE615A040CDBCA6","GImage.js":"8A31B421F899C53C1D76057F7AA35DC3","GColor.js":"3F152BEBB4545BCEF5D255A594DC52E2","symbolsearch.js":"54CAFE2C058A244D2FDCAC0443FD8293","Entity.js":"7C10DC4FFD31C005841E1DB7E3377467","KPosition.js":"A07B31F37C9CB1FA49A6B47BFF376522","KAlpha.js":"FDAC535470841697614A578B451F6D35","Sprite.js":"CD811FC36D62AC5077FDDF578C118BCF","GBox.js":"9C44756DBEB2733973B0BC3EC7784187","GButton.js":"00F4640559587F3C523855146ABE359C","GImage_Create.js":"ED2F46CFB944C53B9748D57BD8481FEA","symbolsearch_symbol.js":"ACE6991F318B4566099B0B201970B80F","symbolsearch.json":"72B06BD15FE02D21233621894E119A4C","GameRunner.js":"4EC5C05E34DD229518088607E762BDC4","KTrigger.js":"359598582677BA151569C2DA9B85F2C8","GMap.js":"6F664B3E3D5CEF53B028ECBDDDE836B6","GameParams.js":"51E7EECE2F2F5C7486F3C24306BD629E","Trial.js":"6171E3FA7940715F1573D01EBAF67D2F"}|{"symbols.png":"7961FD8CB80B8DC244C50F826F85496D","":"-1"}|.|.
Symbol Search|Symbol Search|script|3080D1BA430EDD8E29E4CA941C1AAD6E|9999|637ba272-d9bb-4a27-bc8c-064fbe1b0a0e|6|7c7e2738-0e5a-4094-8c4a-3e1e66b553e7|2020/09/16 15:13:06|cb4075c1-50f8-446f-a3c2-7619e49fc128|59.59302325581396|59.59302325581396|838.0MB|46.31358382750257|{"type":"script","script":"symbolsearch","trialnum":"4","trialtype":"5","matchpairstop":"3","feedback":"0","lureperc":"100","leftcorrectperc":"50","startdelay":"1000","defval_survey_pack_id":"demo_survey","leftcorrect":"0","lure":"1"}|1|1|4|1|0|true|symbolsearch|LURE|133|143|1|0|{"GameEngine.js":"61FA031FC10C8D55D04FF952C4D14DB9","Tools.js":"CA63E8AEADAD3FB000F03128ED0B5770","GList.js":"532D667D75F0085221F727470CA83389","KTime.js":"875C9B3225EF5E83B5E6E0BA905A448B","ErrorMan.js":"539CD2C30AA2B5609EE615A040CDBCA6","GImage.js":"8A31B421F899C53C1D76057F7AA35DC3","GColor.js":"3F152BEBB4545BCEF5D255A594DC52E2","symbolsearch.js":"54CAFE2C058A244D2FDCAC0443FD8293","Entity.js":"7C10DC4FFD31C005841E1DB7E3377467","KPosition.js":"A07B31F37C9CB1FA49A6B47BFF376522","KAlpha.js":"FDAC535470841697614A578B451F6D35","Sprite.js":"CD811FC36D62AC5077FDDF578C118BCF","GBox.js":"9C44756DBEB2733973B0BC3EC7784187","GButton.js":"00F4640559587F3C523855146ABE359C","GImage_Create.js":"ED2F46CFB944C53B9748D57BD8481FEA","symbolsearch_symbol.js":"ACE6991F318B4566099B0B201970B80F","symbolsearch.json":"72B06BD15FE02D21233621894E119A4C","GameRunner.js":"4EC5C05E34DD229518088607E762BDC4","KTrigger.js":"359598582677BA151569C2DA9B85F2C8","GMap.js":"6F664B3E3D5CEF53B028ECBDDDE836B6","GameParams.js":"51E7EECE2F2F5C7486F3C24306BD629E","Trial.js":"6171E3FA7940715F1573D01EBAF67D2F"}|{"symbols.png":"7961FD8CB80B8DC244C50F826F85496D","":"-1"}|.|.
Symbol Search|Symbol Search|script|3080D1BA430EDD8E29E4CA941C1AAD6E|9999|9d15546d-58d5-480a-8249-5fdf2ad2cace|7|d150975d-6c1f-436a-a3a2-493060e7bc7f|2020/09/16 15:50:16|2aac2215-f7d0-4368-b9bf-43057abf6480|59.80650835532102|56.239015817223205|1901.0MB|53.1331847813152|{"type":"script","script":"symbolsearch","trialnum":"4","trialtype":"5","matchpairstop":"3","feedback":"0","lureperc":"100","leftcorrectperc":"50","startdelay":"1000","defval_survey_pack_id":"demo_survey","leftcorrect":"1","lure":"1"}|1|1|1|1|0|true|symbolsearch|LURE|533|555|1|1|{"GameEngine.js":"61FA031FC10C8D55D04FF952C4D14DB9","Tools.js":"CA63E8AEADAD3FB000F03128ED0B5770","GList.js":"532D667D75F0085221F727470CA83389","KTime.js":"875C9B3225EF5E83B5E6E0BA905A448B","ErrorMan.js":"539CD2C30AA2B5609EE615A040CDBCA6","GImage.js":"8A31B421F899C53C1D76057F7AA35DC3","GColor.js":"3F152BEBB4545BCEF5D255A594DC52E2","symbolsearch.js":"54CAFE2C058A244D2FDCAC0443FD8293","Entity.js":"7C10DC4FFD31C005841E1DB7E3377467","KPosition.js":"A07B31F37C9CB1FA49A6B47BFF376522","KAlpha.js":"FDAC535470841697614A578B451F6D35","Sprite.js":"CD811FC36D62AC5077FDDF578C118BCF","GBox.js":"9C44756DBEB2733973B0BC3EC7784187","GButton.js":"00F4640559587F3C523855146ABE359C","GImage_Create.js":"ED2F46CFB944C53B9748D57BD8481FEA","symbolsearch_symbol.js":"ACE6991F318B4566099B0B201970B80F","symbolsearch.json":"72B06BD15FE02D21233621894E119A4C","GameRunner.js":"4EC5C05E34DD229518088607E762BDC4","KTrigger.js":"359598582677BA151569C2DA9B85F2C8","GMap.js":"6F664B3E3D5CEF53B028ECBDDDE836B6","GameParams.js":"51E7EECE2F2F5C7486F3C24306BD629E","Trial.js":"6171E3FA7940715F1573D01EBAF67D2F"}|{"symbols.png":"7961FD8CB80B8DC244C50F826F85496D","":"-1"}|.|.
Symbol Search|Symbol Search|script|3080D1BA430EDD8E29E4CA941C1AAD6E|9999|9d15546d-58d5-480a-8249-5fdf2ad2cace|7|d150975d-6c1f-436a-a3a2-493060e7bc7f|2020/09/16 15:50:17|0de69964-7e73-4bf2-bb6c-91203c7db098|59.642147117296226|57.615894039735096|1894.0MB|52.94300035045466|{"type":"script","script":"symbolsearch","trialnum":"4","trialtype":"5","matchpairstop":"3","feedback":"0","lureperc":"100","leftcorrectperc":"50","startdelay":"1000","defval_survey_pack_id":"demo_survey","leftcorrect":"0","lure":"1"}|1|1|2|1|0|true|symbolsearch|LURE|943|958|1|0|{"GameEngine.js":"61FA031FC10C8D55D04FF952C4D14DB9","Tools.js":"CA63E8AEADAD3FB000F03128ED0B5770","GList.js":"532D667D75F0085221F727470CA83389","KTime.js":"875C9B3225EF5E83B5E6E0BA905A448B","ErrorMan.js":"539CD2C30AA2B5609EE615A040CDBCA6","GImage.js":"8A31B421F899C53C1D76057F7AA35DC3","GColor.js":"3F152BEBB4545BCEF5D255A594DC52E2","symbolsearch.js":"54CAFE2C058A244D2FDCAC0443FD8293","Entity.js":"7C10DC4FFD31C005841E1DB7E3377467","KPosition.js":"A07B31F37C9CB1FA49A6B47BFF376522","KAlpha.js":"FDAC535470841697614A578B451F6D35","Sprite.js":"CD811FC36D62AC5077FDDF578C118BCF","GBox.js":"9C44756DBEB2733973B0BC3EC7784187","GButton.js":"00F4640559587F3C523855146ABE359C","GImage_Create.js":"ED2F46CFB944C53B9748D57BD8481FEA","symbolsearch_symbol.js":"ACE6991F318B4566099B0B201970B80F","symbolsearch.json":"72B06BD15FE02D21233621894E119A4C","GameRunner.js":"4EC5C05E34DD229518088607E762BDC4","KTrigger.js":"359598582677BA151569C2DA9B85F2C8","GMap.js":"6F664B3E3D5CEF53B028ECBDDDE836B6","GameParams.js":"51E7EECE2F2F5C7486F3C24306BD629E","Trial.js":"6171E3FA7940715F1573D01EBAF67D2F"}|{"symbols.png":"7961FD8CB80B8DC244C50F826F85496D","":"-1"}|.|.
Symbol Search|Symbol Search|script|3080D1BA430EDD8E29E4CA941C1AAD6E|9999|9d15546d-58d5-480a-8249-5fdf2ad2cace|7|d150975d-6c1f-436a-a3a2-493060e7bc7f|2020/09/16 15:50:18|351bbf5c-f000-414f-8961-e3b6b9ab81d7|60.311284046692606|57.33722060252673|1893.0MB|52.91472379041283|{"type":"script","script":"symbolsearch","trialnum":"4","trialtype":"5","matchpairstop":"3","feedback":"0","lureperc":"100","leftcorrectperc":"50","startdelay":"1000","defval_survey_pack_id":"demo_survey","leftcorrect":"1","lure":"1"}|1|1|3|1|0|true|symbolsearch|LURE|460|474|1|1|{"GameEngine.js":"61FA031FC10C8D55D04FF952C4D14DB9","Tools.js":"CA63E8AEADAD3FB000F03128ED0B5770","GList.js":"532D667D75F0085221F727470CA83389","KTime.js":"875C9B3225EF5E83B5E6E0BA905A448B","ErrorMan.js":"539CD2C30AA2B5609EE615A040CDBCA6","GImage.js":"8A31B421F899C53C1D76057F7AA35DC3","GColor.js":"3F152BEBB4545BCEF5D255A594DC52E2","symbolsearch.js":"54CAFE2C058A244D2FDCAC0443FD8293","Entity.js":"7C10DC4FFD31C005841E1DB7E3377467","KPosition.js":"A07B31F37C9CB1FA49A6B47BFF376522","KAlpha.js":"FDAC535470841697614A578B451F6D35","Sprite.js":"CD811FC36D62AC5077FDDF578C118BCF","GBox.js":"9C44756DBEB2733973B0BC3EC7784187","GButton.js":"00F4640559587F3C523855146ABE359C","GImage_Create.js":"ED2F46CFB944C53B9748D57BD8481FEA","symbolsearch_symbol.js":"ACE6991F318B4566099B0B201970B80F","symbolsearch.json":"72B06BD15FE02D21233621894E119A4C","GameRunner.js":"4EC5C05E34DD229518088607E762BDC4","KTrigger.js":"359598582677BA151569C2DA9B85F2C8","GMap.js":"6F664B3E3D5CEF53B028ECBDDDE836B6","GameParams.js":"51E7EECE2F2F5C7486F3C24306BD629E","Trial.js":"6171E3FA7940715F1573D01EBAF67D2F"}|{"symbols.png":"7961FD8CB80B8DC244C50F826F85496D","":"-1"}|.|.
Symbol Search|Symbol Search|script|3080D1BA430EDD8E29E4CA941C1AAD6E|9999|9d15546d-58d5-480a-8249-5fdf2ad2cace|7|d150975d-6c1f-436a-a3a2-493060e7bc7f|2020/09/16 15:50:19|8e9d039b-16b2-416f-a284-45075c0445f4|59.893048128342244|58.8235294117647|1892.0MB|52.89365284026582|{"type":"script","script":"symbolsearch","trialnum":"4","trialtype":"5","matchpairstop":"3","feedback":"0","lureperc":"100","leftcorrectperc":"50","startdelay":"1000","defval_survey_pack_id":"demo_survey","leftcorrect":"0","lure":"1"}|1|1|4|1|0|true|symbolsearch|LURE|374|387|1|0|{"GameEngine.js":"61FA031FC10C8D55D04FF952C4D14DB9","Tools.js":"CA63E8AEADAD3FB000F03128ED0B5770","GList.js":"532D667D75F0085221F727470CA83389","KTime.js":"875C9B3225EF5E83B5E6E0BA905A448B","ErrorMan.js":"539CD2C30AA2B5609EE615A040CDBCA6","GImage.js":"8A31B421F899C53C1D76057F7AA35DC3","GColor.js":"3F152BEBB4545BCEF5D255A594DC52E2","symbolsearch.js":"54CAFE2C058A244D2FDCAC0443FD8293","Entity.js":"7C10DC4FFD31C005841E1DB7E3377467","KPosition.js":"A07B31F37C9CB1FA49A6B47BFF376522","KAlpha.js":"FDAC535470841697614A578B451F6D35","Sprite.js":"CD811FC36D62AC5077FDDF578C118BCF","GBox.js":"9C44756DBEB2733973B0BC3EC7784187","GButton.js":"00F4640559587F3C523855146ABE359C","GImage_Create.js":"ED2F46CFB944C53B9748D57BD8481FEA","symbolsearch_symbol.js":"ACE6991F318B4566099B0B201970B80F","symbolsearch.json":"72B06BD15FE02D21233621894E119A4C","GameRunner.js":"4EC5C05E34DD229518088607E762BDC4","KTrigger.js":"359598582677BA151569C2DA9B85F2C8","GMap.js":"6F664B3E3D5CEF53B028ECBDDDE836B6","GameParams.js":"51E7EECE2F2F5C7486F3C24306BD629E","Trial.js":"6171E3FA7940715F1573D01EBAF67D2F"}|{"symbols.png":"7961FD8CB80B8DC244C50F826F85496D","":"-1"}|.|.
Symbol Search|Symbol Search|script|a97fb038cc2bc032ad9b2a27be143201|9999|d7faf27b-e154-44db-a90f-37489ca6b41d|39|7cf2fb20-6d0f-45f5-94f5-123ecefd65ea|2020/11/23 15:44:41|bcfb45b0-8571-4559-8f92-e654de14ad77|60.12526096033403|58.872651356993735|1393.0MB|25.460342015244127|{"feedback":"0","leftcorrectperc":"50","lureperc":"100","matchpairstop":"3","startdelay":"1000","script":"symbolsearch","trialnum":"11","trialtype":"5","type":"script","defval_survey_pack_id":"demo_survey","leftcorrect":"1","lure":"1"}|1|1|1|1|0|true|symbolsearch|LURE|1839|1853|1|1|{"GameEngine.js":"61fa031fc10c8d55d04ff952c4d14db9","Tools.js":"ca63e8aeadad3fb000f03128ed0b5770","GList.js":"532d667d75f0085221f727470ca83389","KTime.js":"875c9b3225ef5e83b5e6e0ba905a448b","ErrorMan.js":"539cd2c30aa2b5609ee615a040cdbca6","GImage.js":"8a31b421f899c53c1d76057f7aa35dc3","GColor.js":"3f152bebb4545bcef5d255a594dc52e2","symbolsearch.js":"54cafe2c058a244d2fdcac0443fd8293","Entity.js":"7c10dc4ffd31c005841e1db7e3377467","KPosition.js":"a07b31f37c9cb1fa49a6b47bff376522","KAlpha.js":"fdac535470841697614a578b451f6d35","Sprite.js":"cd811fc36d62ac5077fddf578c118bcf","GBox.js":"9c44756dbeb2733973b0bc3ec7784187","GButton.js":"00f4640559587f3c523855146abe359c","GImage_Create.js":"ed2f46cfb944c53b9748d57bd8481fea","symbolsearch_symbol.js":"ace6991f318b4566099b0b201970b80f","symbolsearch.json":"72b06bd15fe02d21233621894e119a4c","GameRunner.js":"4ec5c05e34dd229518088607e762bdc4","KTrigger.js":"359598582677ba151569c2da9b85f2c8","GMap.js":"6f664b3e3d5cef53b028ecbddde836b6","GameParams.js":"51e7eece2f2f5c7486f3c24306bd629e","Trial.js":"6171e3fa7940715f1573d01ebaf67d2f"}|{"symbols.png":"7961fd8cb80b8dc244c50f826f85496d","":"-1"}|.|android
Symbol Search|Symbol Search|script|a97fb038cc2bc032ad9b2a27be143201|9999|d7faf27b-e154-44db-a90f-37489ca6b41d|39|7cf2fb20-6d0f-45f5-94f5-123ecefd65ea|2020/11/23 15:44:44|5040d812-c6aa-433d-951a-47aca8b674e3|59.56258724988366|59.56258724988366|1394.0MB|25.479607665730974|{"feedback":"0","leftcorrectperc":"50","lureperc":"100","matchpairstop":"3","startdelay":"1000","script":"symbolsearch","trialnum":"11","trialtype":"5","type":"script","defval_survey_pack_id":"demo_survey","leftcorrect":"1","lure":"1"}|1|1|2|1|0|true|symbolsearch|LURE|1609|1613|1|1|{"GameEngine.js":"61fa031fc10c8d55d04ff952c4d14db9","Tools.js":"ca63e8aeadad3fb000f03128ed0b5770","GList.js":"532d667d75f0085221f727470ca83389","KTime.js":"875c9b3225ef5e83b5e6e0ba905a448b","ErrorMan.js":"539cd2c30aa2b5609ee615a040cdbca6","GImage.js":"8a31b421f899c53c1d76057f7aa35dc3","GColor.js":"3f152bebb4545bcef5d255a594dc52e2","symbolsearch.js":"54cafe2c058a244d2fdcac0443fd8293","Entity.js":"7c10dc4ffd31c005841e1db7e3377467","KPosition.js":"a07b31f37c9cb1fa49a6b47bff376522","KAlpha.js":"fdac535470841697614a578b451f6d35","Sprite.js":"cd811fc36d62ac5077fddf578c118bcf","GBox.js":"9c44756dbeb2733973b0bc3ec7784187","GButton.js":"00f4640559587f3c523855146abe359c","GImage_Create.js":"ed2f46cfb944c53b9748d57bd8481fea","symbolsearch_symbol.js":"ace6991f318b4566099b0b201970b80f","symbolsearch.json":"72b06bd15fe02d21233621894e119a4c","GameRunner.js":"4ec5c05e34dd229518088607e762bdc4","KTrigger.js":"359598582677ba151569c2da9b85f2c8","GMap.js":"6f664b3e3d5cef53b028ecbddde836b6","GameParams.js":"51e7eece2f2f5c7486f3c24306bd629e","Trial.js":"6171e3fa7940715f1573d01ebaf67d2f"}|{"symbols.png":"7961fd8cb80b8dc244c50f826f85496d","":"-1"}|.|android
Symbol Search|Symbol Search|script|a97fb038cc2bc032ad9b2a27be143201|9999|d7faf27b-e154-44db-a90f-37489ca6b41d|39|7cf2fb20-6d0f-45f5-94f5-123ecefd65ea|2020/11/23 15:44:45|0bcc8c1b-191d-4f2e-a499-6e81201553c0|59.199071387115495|59.77945443993035|1403.0MB|25.635231309108086|{"feedback":"0","leftcorrectperc":"50","lureperc":"100","matchpairstop":"3","startdelay":"1000","script":"symbolsearch","trialnum":"11","trialtype":"5","type":"script","defval_survey_pack_id":"demo_survey","leftcorrect":"0","lure":"1"}|1|1|3|1|0|true|symbolsearch|LURE|1179|1185|1|0|{"GameEngine.js":"61fa031fc10c8d55d04ff952c4d14db9","Tools.js":"ca63e8aeadad3fb000f03128ed0b5770","GList.js":"532d667d75f0085221f727470ca83389","KTime.js":"875c9b3225ef5e83b5e6e0ba905a448b","ErrorMan.js":"539cd2c30aa2b5609ee615a040cdbca6","GImage.js":"8a31b421f899c53c1d76057f7aa35dc3","GColor.js":"3f152bebb4545bcef5d255a594dc52e2","symbolsearch.js":"54cafe2c058a244d2fdcac0443fd8293","Entity.js":"7c10dc4ffd31c005841e1db7e3377467","KPosition.js":"a07b31f37c9cb1fa49a6b47bff376522","KAlpha.js":"fdac535470841697614a578b451f6d35","Sprite.js":"cd811fc36d62ac5077fddf578c118bcf","GBox.js":"9c44756dbeb2733973b0bc3ec7784187","GButton.js":"00f4640559587f3c523855146abe359c","GImage_Create.js":"ed2f46cfb944c53b9748d57bd8481fea","symbolsearch_symbol.js":"ace6991f318b4566099b0b201970b80f","symbolsearch.json":"72b06bd15fe02d21233621894e119a4c","GameRunner.js":"4ec5c05e34dd229518088607e762bdc4","KTrigger.js":"359598582677ba151569c2da9b85f2c8","GMap.js":"6f664b3e3d5cef53b028ecbddde836b6","GameParams.js":"51e7eece2f2f5c7486f3c24306bd629e","Trial.js":"6171e3fa7940715f1573d01ebaf67d2f"}|{"symbols.png":"7961fd8cb80b8dc244c50f826f85496d","":"-1"}|.|android
Symbol Search|Symbol Search|script|a97fb038cc2bc032ad9b2a27be143201|9999|d7faf27b-e154-44db-a90f-37489ca6b41d|39|7cf2fb20-6d0f-45f5-94f5-123ecefd65ea|2020/11/23 15:44:46|2fe36f14-f1e6-4d03-8f67-ffa18d2a27ae|59.869036482694106|59.869036482694106|1401.0MB|25.599411470054754|{"feedback":"0","leftcorrectperc":"50","lureperc":"100","matchpairstop":"3","startdelay":"1000","script":"symbolsearch","trialnum":"11","trialtype":"5","type":"script","defval_survey_pack_id":"demo_survey","leftcorrect":"0","lure":"1"}|1|1|4|1|0|true|symbolsearch|LURE|525|530|0|0|{"GameEngine.js":"61fa031fc10c8d55d04ff952c4d14db9","Tools.js":"ca63e8aeadad3fb000f03128ed0b5770","GList.js":"532d667d75f0085221f727470ca83389","KTime.js":"875c9b3225ef5e83b5e6e0ba905a448b","ErrorMan.js":"539cd2c30aa2b5609ee615a040cdbca6","GImage.js":"8a31b421f899c53c1d76057f7aa35dc3","GColor.js":"3f152bebb4545bcef5d255a594dc52e2","symbolsearch.js":"54cafe2c058a244d2fdcac0443fd8293","Entity.js":"7c10dc4ffd31c005841e1db7e3377467","KPosition.js":"a07b31f37c9cb1fa49a6b47bff376522","KAlpha.js":"fdac535470841697614a578b451f6d35","Sprite.js":"cd811fc36d62ac5077fddf578c118bcf","GBox.js":"9c44756dbeb2733973b0bc3ec7784187","GButton.js":"00f4640559587f3c523855146abe359c","GImage_Create.js":"ed2f46cfb944c53b9748d57bd8481fea","symbolsearch_symbol.js":"ace6991f318b4566099b0b201970b80f","symbolsearch.json":"72b06bd15fe02d21233621894e119a4c","GameRunner.js":"4ec5c05e34dd229518088607e762bdc4","KTrigger.js":"359598582677ba151569c2da9b85f2c8","GMap.js":"6f664b3e3d5cef53b028ecbddde836b6","GameParams.js":"51e7eece2f2f5c7486f3c24306bd629e","Trial.js":"6171e3fa7940715f1573d01ebaf67d2f"}|{"symbols.png":"7961fd8cb80b8dc244c50f826f85496d","":"-1"}|.|android
Symbol Search|Symbol Search|script|a97fb038cc2bc032ad9b2a27be143201|9999|d7faf27b-e154-44db-a90f-37489ca6b41d|39|7cf2fb20-6d0f-45f5-94f5-123ecefd65ea|2020/11/23 15:44:48|50718a01-829e-4ff9-9f84-2015ac2d995f|59.94787141615986|59.94787141615986|1396.0MB|25.514571253651553|{"feedback":"0","leftcorrectperc":"50","lureperc":"100","matchpairstop":"3","startdelay":"1000","script":"symbolsearch","trialnum":"11","trialtype":"5","type":"script","defval_survey_pack_id":"demo_survey","leftcorrect":"1","lure":"1"}|1|1|5|1|0|true|symbolsearch|LURE|602|612|1|1|{"GameEngine.js":"61fa031fc10c8d55d04ff952c4d14db9","Tools.js":"ca63e8aeadad3fb000f03128ed0b5770","GList.js":"532d667d75f0085221f727470ca83389","KTime.js":"875c9b3225ef5e83b5e6e0ba905a448b","ErrorMan.js":"539cd2c30aa2b5609ee615a040cdbca6","GImage.js":"8a31b421f899c53c1d76057f7aa35dc3","GColor.js":"3f152bebb4545bcef5d255a594dc52e2","symbolsearch.js":"54cafe2c058a244d2fdcac0443fd8293","Entity.js":"7c10dc4ffd31c005841e1db7e3377467","KPosition.js":"a07b31f37c9cb1fa49a6b47bff376522","KAlpha.js":"fdac535470841697614a578b451f6d35","Sprite.js":"cd811fc36d62ac5077fddf578c118bcf","GBox.js":"9c44756dbeb2733973b0bc3ec7784187","GButton.js":"00f4640559587f3c523855146abe359c","GImage_Create.js":"ed2f46cfb944c53b9748d57bd8481fea","symbolsearch_symbol.js":"ace6991f318b4566099b0b201970b80f","symbolsearch.json":"72b06bd15fe02d21233621894e119a4c","GameRunner.js":"4ec5c05e34dd229518088607e762bdc4","KTrigger.js":"359598582677ba151569c2da9b85f2c8","GMap.js":"6f664b3e3d5cef53b028ecbddde836b6","GameParams.js":"51e7eece2f2f5c7486f3c24306bd629e","Trial.js":"6171e3fa7940715f1573d01ebaf67d2f"}|{"symbols.png":"7961fd8cb80b8dc244c50f826f85496d","":"-1"}|.|android
Symbol Search|Symbol Search|script|a97fb038cc2bc032ad9b2a27be143201|9999|d7faf27b-e154-44db-a90f-37489ca6b41d|39|7cf2fb20-6d0f-45f5-94f5-123ecefd65ea|2020/11/23 15:44:49|e349061c-2c69-4619-a822-ebfa3d9a00c3|60.189165950128974|60.189165950128974|1398.0MB|25.54753692226239|{"feedback":"0","leftcorrectperc":"50","lureperc":"100","matchpairstop":"3","startdelay":"1000","script":"symbolsearch","trialnum":"11","trialtype":"5","type":"script","defval_survey_pack_id":"demo_survey","leftcorrect":"0","lure":"1"}|1|1|6|1|0|true|symbolsearch|LURE|616|625|1|0|{"GameEngine.js":"61fa031fc10c8d55d04ff952c4d14db9","Tools.js":"ca63e8aeadad3fb000f03128ed0b5770","GList.js":"532d667d75f0085221f727470ca83389","KTime.js":"875c9b3225ef5e83b5e6e0ba905a448b","ErrorMan.js":"539cd2c30aa2b5609ee615a040cdbca6","GImage.js":"8a31b421f899c53c1d76057f7aa35dc3","GColor.js":"3f152bebb4545bcef5d255a594dc52e2","symbolsearch.js":"54cafe2c058a244d2fdcac0443fd8293","Entity.js":"7c10dc4ffd31c005841e1db7e3377467","KPosition.js":"a07b31f37c9cb1fa49a6b47bff376522","KAlpha.js":"fdac535470841697614a578b451f6d35","Sprite.js":"cd811fc36d62ac5077fddf578c118bcf","GBox.js":"9c44756dbeb2733973b0bc3ec7784187","GButton.js":"00f4640559587f3c523855146abe359c","GImage_Create.js":"ed2f46cfb944c53b9748d57bd8481fea","symbolsearch_symbol.js":"ace6991f318b4566099b0b201970b80f","symbolsearch.json":"72b06bd15fe02d21233621894e119a4c","GameRunner.js":"4ec5c05e34dd229518088607e762bdc4","KTrigger.js":"359598582677ba151569c2da9b85f2c8","GMap.js":"6f664b3e3d5cef53b028ecbddde836b6","GameParams.js":"51e7eece2f2f5c7486f3c24306bd629e","Trial.js":"6171e3fa7940715f1573d01ebaf67d2f"}|{"symbols.png":"7961fd8cb80b8dc244c50f826f85496d","":"-1"}|.|android
Symbol Search|Symbol Search|script|a97fb038cc2bc032ad9b2a27be143201|9999|d7faf27b-e154-44db-a90f-37489ca6b41d|39|7cf2fb20-6d0f-45f5-94f5-123ecefd65ea|2020/11/23 15:44:50|c8f9b5b8-234e-40c9-8ce5-a61ac361a260|59.715639810426545|59.715639810426545|1394.0MB|25.48060662538585|{"feedback":"0","leftcorrectperc":"50","lureperc":"100","matchpairstop":"3","startdelay":"1000","script":"symbolsearch","trialnum":"11","trialtype":"5","type":"script","defval_survey_pack_id":"demo_survey","leftcorrect":"1","lure":"1"}|1|1|7|1|0|true|symbolsearch|LURE|509|515|0|1|{"GameEngine.js":"61fa031fc10c8d55d04ff952c4d14db9","Tools.js":"ca63e8aeadad3fb000f03128ed0b5770","GList.js":"532d667d75f0085221f727470ca83389","KTime.js":"875c9b3225ef5e83b5e6e0ba905a448b","ErrorMan.js":"539cd2c30aa2b5609ee615a040cdbca6","GImage.js":"8a31b421f899c53c1d76057f7aa35dc3","GColor.js":"3f152bebb4545bcef5d255a594dc52e2","symbolsearch.js":"54cafe2c058a244d2fdcac0443fd8293","Entity.js":"7c10dc4ffd31c005841e1db7e3377467","KPosition.js":"a07b31f37c9cb1fa49a6b47bff376522","KAlpha.js":"fdac535470841697614a578b451f6d35","Sprite.js":"cd811fc36d62ac5077fddf578c118bcf","GBox.js":"9c44756dbeb2733973b0bc3ec7784187","GButton.js":"00f4640559587f3c523855146abe359c","GImage_Create.js":"ed2f46cfb944c53b9748d57bd8481fea","symbolsearch_symbol.js":"ace6991f318b4566099b0b201970b80f","symbolsearch.json":"72b06bd15fe02d21233621894e119a4c","GameRunner.js":"4ec5c05e34dd229518088607e762bdc4","KTrigger.js":"359598582677ba151569c2da9b85f2c8","GMap.js":"6f664b3e3d5cef53b028ecbddde836b6","GameParams.js":"51e7eece2f2f5c7486f3c24306bd629e","Trial.js":"6171e3fa7940715f1573d01ebaf67d2f"}|{"symbols.png":"7961fd8cb80b8dc244c50f826f85496d","":"-1"}|.|android
Symbol Search|Symbol Search|script|a97fb038cc2bc032ad9b2a27be143201|9999|d7faf27b-e154-44db-a90f-37489ca6b41d|39|7cf2fb20-6d0f-45f5-94f5-123ecefd65ea|2020/11/23 15:44:51|48391a58-bb89-433b-a7c3-e2fbc41053bf|59.78898007033998|59.78898007033998|1392.0MB|25.436652400571404|{"feedback":"0","leftcorrectperc":"50","lureperc":"100","matchpairstop":"3","startdelay":"1000","script":"symbolsearch","trialnum":"11","trialtype":"5","type":"script","defval_survey_pack_id":"demo_survey","leftcorrect":"1","lure":"1"}|1|1|8|1|0|true|symbolsearch|LURE|302|313|1|1|{"GameEngine.js":"61fa031fc10c8d55d04ff952c4d14db9","Tools.js":"ca63e8aeadad3fb000f03128ed0b5770","GList.js":"532d667d75f0085221f727470ca83389","KTime.js":"875c9b3225ef5e83b5e6e0ba905a448b","ErrorMan.js":"539cd2c30aa2b5609ee615a040cdbca6","GImage.js":"8a31b421f899c53c1d76057f7aa35dc3","GColor.js":"3f152bebb4545bcef5d255a594dc52e2","symbolsearch.js":"54cafe2c058a244d2fdcac0443fd8293","Entity.js":"7c10dc4ffd31c005841e1db7e3377467","KPosition.js":"a07b31f37c9cb1fa49a6b47bff376522","KAlpha.js":"fdac535470841697614a578b451f6d35","Sprite.js":"cd811fc36d62ac5077fddf578c118bcf","GBox.js":"9c44756dbeb2733973b0bc3ec7784187","GButton.js":"00f4640559587f3c523855146abe359c","GImage_Create.js":"ed2f46cfb944c53b9748d57bd8481fea","symbolsearch_symbol.js":"ace6991f318b4566099b0b201970b80f","symbolsearch.json":"72b06bd15fe02d21233621894e119a4c","GameRunner.js":"4ec5c05e34dd229518088607e762bdc4","KTrigger.js":"359598582677ba151569c2da9b85f2c8","GMap.js":"6f664b3e3d5cef53b028ecbddde836b6","GameParams.js":"51e7eece2f2f5c7486f3c24306bd629e","Trial.js":"6171e3fa7940715f1573d01ebaf67d2f"}|{"symbols.png":"7961fd8cb80b8dc244c50f826f85496d","":"-1"}|.|android
Symbol Search|Symbol Search|script|a97fb038cc2bc032ad9b2a27be143201|9999|d7faf27b-e154-44db-a90f-37489ca6b41d|39|7cf2fb20-6d0f-45f5-94f5-123ecefd65ea|2020/11/23 15:44:52|6f4f1693-c326-426d-a406-79766b28e2e1|59.6234309623431|59.6234309623431|1395.0MB|25.49601914577533|{"feedback":"0","leftcorrectperc":"50","lureperc":"100","matchpairstop":"3","startdelay":"1000","script":"symbolsearch","trialnum":"11","trialtype":"5","type":"script","defval_survey_pack_id":"demo_survey","leftcorrect":"0","lure":"1"}|1|1|9|1|0|true|symbolsearch|LURE|402|412|1|0|{"GameEngine.js":"61fa031fc10c8d55d04ff952c4d14db9","Tools.js":"ca63e8aeadad3fb000f03128ed0b5770","GList.js":"532d667d75f0085221f727470ca83389","KTime.js":"875c9b3225ef5e83b5e6e0ba905a448b","ErrorMan.js":"539cd2c30aa2b5609ee615a040cdbca6","GImage.js":"8a31b421f899c53c1d76057f7aa35dc3","GColor.js":"3f152bebb4545bcef5d255a594dc52e2","symbolsearch.js":"54cafe2c058a244d2fdcac0443fd8293","Entity.js":"7c10dc4ffd31c005841e1db7e3377467","KPosition.js":"a07b31f37c9cb1fa49a6b47bff376522","KAlpha.js":"fdac535470841697614a578b451f6d35","Sprite.js":"cd811fc36d62ac5077fddf578c118bcf","GBox.js":"9c44756dbeb2733973b0bc3ec7784187","GButton.js":"00f4640559587f3c523855146abe359c","GImage_Create.js":"ed2f46cfb944c53b9748d57bd8481fea","symbolsearch_symbol.js":"ace6991f318b4566099b0b201970b80f","symbolsearch.json":"72b06bd15fe02d21233621894e119a4c","GameRunner.js":"4ec5c05e34dd229518088607e762bdc4","KTrigger.js":"359598582677ba151569c2da9b85f2c8","GMap.js":"6f664b3e3d5cef53b028ecbddde836b6","GameParams.js":"51e7eece2f2f5c7486f3c24306bd629e","Trial.js":"6171e3fa7940715f1573d01ebaf67d2f"}|{"symbols.png":"7961fd8cb80b8dc244c50f826f85496d","":"-1"}|.|android
Symbol Search|Symbol Search|script|a97fb038cc2bc032ad9b2a27be143201|9999|d7faf27b-e154-44db-a90f-37489ca6b41d|39|7cf2fb20-6d0f-45f5-94f5-123ecefd65ea|2020/11/23 15:44:53|9ad61d38-abd7-494b-8b9a-032efabf6c67|60.08146639511202|60.08146639511202|1391.0MB|25.423023736708483|{"feedback":"0","leftcorrectperc":"50","lureperc":"100","matchpairstop":"3","startdelay":"1000","script":"symbolsearch","trialnum":"11","trialtype":"5","type":"script","defval_survey_pack_id":"demo_survey","leftcorrect":"1","lure":"1"}|1|1|10|1|0|true|symbolsearch|LURE|432|444|1|1|{"GameEngine.js":"61fa031fc10c8d55d04ff952c4d14db9","Tools.js":"ca63e8aeadad3fb000f03128ed0b5770","GList.js":"532d667d75f0085221f727470ca83389","KTime.js":"875c9b3225ef5e83b5e6e0ba905a448b","ErrorMan.js":"539cd2c30aa2b5609ee615a040cdbca6","GImage.js":"8a31b421f899c53c1d76057f7aa35dc3","GColor.js":"3f152bebb4545bcef5d255a594dc52e2","symbolsearch.js":"54cafe2c058a244d2fdcac0443fd8293","Entity.js":"7c10dc4ffd31c005841e1db7e3377467","KPosition.js":"a07b31f37c9cb1fa49a6b47bff376522","KAlpha.js":"fdac535470841697614a578b451f6d35","Sprite.js":"cd811fc36d62ac5077fddf578c118bcf","GBox.js":"9c44756dbeb2733973b0bc3ec7784187","GButton.js":"00f4640559587f3c523855146abe359c","GImage_Create.js":"ed2f46cfb944c53b9748d57bd8481fea","symbolsearch_symbol.js":"ace6991f318b4566099b0b201970b80f","symbolsearch.json":"72b06bd15fe02d21233621894e119a4c","GameRunner.js":"4ec5c05e34dd229518088607e762bdc4","KTrigger.js":"359598582677ba151569c2da9b85f2c8","GMap.js":"6f664b3e3d5cef53b028ecbddde836b6","GameParams.js":"51e7eece2f2f5c7486f3c24306bd629e","Trial.js":"6171e3fa7940715f1573d01ebaf67d2f"}|{"symbols.png":"7961fd8cb80b8dc244c50f826f85496d","":"-1"}|.|android
Symbol Search|Symbol Search|script|a97fb038cc2bc032ad9b2a27be143201|9999|d7faf27b-e154-44db-a90f-37489ca6b41d|39|7cf2fb20-6d0f-45f5-94f5-123ecefd65ea|2020/11/23 15:44:54|64e3a502-affa-4eaa-b41d-dda78e03ff8a|59.73223480947477|59.73223480947477|1389.0MB|25.38128149398698|{"feedback":"0","leftcorrectperc":"50","lureperc":"100","matchpairstop":"3","startdelay":"1000","script":"symbolsearch","trialnum":"11","trialtype":"5","type":"script","defval_survey_pack_id":"demo_survey","leftcorrect":"0","lure":"1"}|1|1|11|1|0|true|symbolsearch|LURE|415|428|1|0|{"GameEngine.js":"61fa031fc10c8d55d04ff952c4d14db9","Tools.js":"ca63e8aeadad3fb000f03128ed0b5770","GList.js":"532d667d75f0085221f727470ca83389","KTime.js":"875c9b3225ef5e83b5e6e0ba905a448b","ErrorMan.js":"539cd2c30aa2b5609ee615a040cdbca6","GImage.js":"8a31b421f899c53c1d76057f7aa35dc3","GColor.js":"3f152bebb4545bcef5d255a594dc52e2","symbolsearch.js":"54cafe2c058a244d2fdcac0443fd8293","Entity.js":"7c10dc4ffd31c005841e1db7e3377467","KPosition.js":"a07b31f37c9cb1fa49a6b47bff376522","KAlpha.js":"fdac535470841697614a578b451f6d35","Sprite.js":"cd811fc36d62ac5077fddf578c118bcf","GBox.js":"9c44756dbeb2733973b0bc3ec7784187","GButton.js":"00f4640559587f3c523855146abe359c","GImage_Create.js":"ed2f46cfb944c53b9748d57bd8481fea","symbolsearch_symbol.js":"ace6991f318b4566099b0b201970b80f","symbolsearch.json":"72b06bd15fe02d21233621894e119a4c","GameRunner.js":"4ec5c05e34dd229518088607e762bdc4","KTrigger.js":"359598582677ba151569c2da9b85f2c8","GMap.js":"6f664b3e3d5cef53b028ecbddde836b6","GameParams.js":"51e7eece2f2f5c7486f3c24306bd629e","Trial.js":"6171e3fa7940715f1573d01ebaf67d2f"}|{"symbols.png":"7961fd8cb80b8dc244c50f826f85496d","":"-1"}|.|android
Symbol Search|Symbol Search|script|a97fb038cc2bc032ad9b2a27be143201|9999|43057e40-fe6e-43ec-969f-b912ca9e58c8|31|6138ac33-f239-437a-80f5-99dd9e8d6de6|2020/11/24 15:46:16|bf021d8f-1056-41e0-81c2-7252fa7089b1|59.368191721132895|59.368191721132895|5703.0MB|50.15880344822492|{"feedback":"0","leftcorrectperc":"50","lureperc":"100","matchpairstop":"3","startdelay":"1000","script":"symbolsearch","trialnum":"11","trialtype":"5","type":"script","defval_survey_pack_id":"demo_survey","leftcorrect":"1","lure":"1"}|1|1|1|1|0|true|symbolsearch|LURE|1278|1298|0|1|{"GameEngine.js":"61fa031fc10c8d55d04ff952c4d14db9","Tools.js":"ca63e8aeadad3fb000f03128ed0b5770","GList.js":"532d667d75f0085221f727470ca83389","KTime.js":"875c9b3225ef5e83b5e6e0ba905a448b","ErrorMan.js":"539cd2c30aa2b5609ee615a040cdbca6","GImage.js":"8a31b421f899c53c1d76057f7aa35dc3","GColor.js":"3f152bebb4545bcef5d255a594dc52e2","symbolsearch.js":"54cafe2c058a244d2fdcac0443fd8293","Entity.js":"7c10dc4ffd31c005841e1db7e3377467","KPosition.js":"a07b31f37c9cb1fa49a6b47bff376522","KAlpha.js":"fdac535470841697614a578b451f6d35","Sprite.js":"cd811fc36d62ac5077fddf578c118bcf","GBox.js":"9c44756dbeb2733973b0bc3ec7784187","GButton.js":"00f4640559587f3c523855146abe359c","GImage_Create.js":"ed2f46cfb944c53b9748d57bd8481fea","symbolsearch_symbol.js":"ace6991f318b4566099b0b201970b80f","symbolsearch.json":"72b06bd15fe02d21233621894e119a4c","GameRunner.js":"4ec5c05e34dd229518088607e762bdc4","KTrigger.js":"359598582677ba151569c2da9b85f2c8","GMap.js":"6f664b3e3d5cef53b028ecbddde836b6","GameParams.js":"51e7eece2f2f5c7486f3c24306bd629e","Trial.js":"6171e3fa7940715f1573d01ebaf67d2f"}|{"symbols.png":"7961fd8cb80b8dc244c50f826f85496d","":"-1"}|.|android
